AccX,AccY,AccZ,Act
0,0,0,0
-0.965087891,-0.060058594,-0.236328125,1
-0.965087891,-0.060058594,-0.236328125,1
-0.965087891,-0.060058594,-0.236328125,1
-0.965087891,-0.060058594,-0.236328125,1
-0.963134766,-0.044921875,-0.227294922,1
-0.963134766,-0.044921875,-0.227294922,1
-0.963134766,-0.044921875,-0.227294922,2
-0.725585938,-0.239013672,0.039550781,2
-0.725585938,-0.239013672,0.039550781,2
-0.725585938,-0.239013672,0.039550781,2
0.226318359,0.074951172,0.955078125,2
0.226318359,0.074951172,0.955078125,2
0.226318359,0.074951172,0.955078125,2
-0.146484375,0.1171875,0.982421875,2
-0.146484375,0.1171875,0.982421875,3
-0.146484375,0.1171875,0.982421875,3
-0.146484375,0.1171875,0.982421875,3
-0.177001953,0.114501953,0.9921875,3
-0.177001953,0.114501953,0.9921875,3
-0.177001953,0.114501953,0.9921875,3
-0.185791016,0.1171875,0.978027344,3
-0.185791016,0.1171875,0.978027344,3
-0.185791016,0.1171875,0.978027344,3
-0.177978516,0.124511719,0.975830078,3
-0.177978516,0.124511719,0.975830078,3
0,0,0,0
-0.970214844,0.049804688,-0.226318359,1
-0.970214844,0.049804688,-0.226318359,1
-0.970214844,0.049804688,-0.226318359,1
-0.970214844,0.049804688,-0.226318359,1
-0.961181641,0.041992188,-0.223388672,1
-0.961181641,0.041992188,-0.223388672,1
-0.961181641,0.041992188,-0.223388672,2
-0.329101563,0.03125,-0.161376953,2
-0.329101563,0.03125,-0.161376953,2
-0.329101563,0.03125,-0.161376953,2
0.551269531,0.251220703,0.941894531,2
0.551269531,0.251220703,0.941894531,2
0.551269531,0.251220703,0.941894531,2
-0.011474609,0.092285156,0.986083984,2
-0.011474609,0.092285156,0.986083984,3
-0.011474609,0.092285156,0.986083984,3
-0.011474609,0.092285156,0.986083984,3
-0.102783203,0.1171875,0.980712891,3
-0.102783203,0.1171875,0.980712891,3
-0.102783203,0.1171875,0.980712891,3
-0.11328125,0.117431641,0.984130859,3
-0.11328125,0.117431641,0.984130859,3
-0.11328125,0.117431641,0.984130859,3
-0.116699219,0.113769531,0.983154297,3
-0.116699219,0.113769531,0.983154297,3
-0.116699219,0.113769531,0.983154297,3
-0.116699219,0.113769531,0.983154297,3
0,0,0,0
-0.94921875,0.012451172,-0.229980469,1
-0.94921875,0.012451172,-0.229980469,1
-0.94921875,0.012451172,-0.229980469,1
-0.932617188,-0.033691406,-0.244873047,1
-0.932617188,-0.033691406,-0.244873047,1
-0.932617188,-0.033691406,-0.244873047,1
-0.932617188,-0.033691406,-0.244873047,1
-0.953369141,0.009521484,-0.216308594,1
-0.953369141,0.009521484,-0.216308594,1
-0.953369141,0.009521484,-0.216308594,1
-0.770019531,-0.011230469,-0.228271484,1
-0.770019531,-0.011230469,-0.228271484,1
-0.770019531,-0.011230469,-0.228271484,2
1.176757813,0.025634766,0.865234375,2
1.176757813,0.025634766,0.865234375,2
1.176757813,0.025634766,0.865234375,2
1.176757813,0.025634766,0.865234375,2
-0.395751953,-0.008544922,0.758300781,2
-0.395751953,-0.008544922,0.758300781,3
-0.395751953,-0.008544922,0.758300781,3
-0.121337891,0.086914063,0.976806641,3
-0.121337891,0.086914063,0.976806641,3
-0.121337891,0.086914063,0.976806641,3
-0.139404297,0.089599609,0.979248047,3
-0.139404297,0.089599609,0.979248047,3
-0.139404297,0.089599609,0.979248047,3
0,0,0,0
-0.976074219,-0.006591797,-0.227539063,1
-0.976074219,-0.006591797,-0.227539063,1
-0.976074219,-0.006591797,-0.227539063,1
-0.976074219,-0.006591797,-0.227539063,1
-0.977783203,-0.008789063,-0.228027344,1
-0.977783203,-0.008789063,-0.228027344,1
-0.977783203,-0.008789063,-0.228027344,2
-0.520507813,0.05859375,-0.148681641,2
-0.520507813,0.05859375,-0.148681641,2
-0.520507813,0.05859375,-0.148681641,2
0.497802734,0.360839844,0.96484375,2
0.497802734,0.360839844,0.96484375,2
0.497802734,0.360839844,0.96484375,2
-0.047363281,0.160644531,0.940185547,2
-0.047363281,0.160644531,0.940185547,3
-0.047363281,0.160644531,0.940185547,3
-0.047363281,0.160644531,0.940185547,3
-0.085205078,0.130615234,0.992431641,3
-0.085205078,0.130615234,0.992431641,3
-0.085205078,0.130615234,0.992431641,3
-0.098876953,0.137207031,0.970947266,3
-0.098876953,0.137207031,0.970947266,3
-0.098876953,0.137207031,0.970947266,3
-0.098144531,0.129882813,0.977539063,3
-0.098144531,0.129882813,0.977539063,3
0,0,0,0
-0.976806641,0.043701172,-0.158447266,1
-0.976806641,0.043701172,-0.158447266,1
-0.976806641,0.043701172,-0.158447266,1
-0.982421875,0.041503906,-0.12890625,1
-0.982421875,0.041503906,-0.12890625,1
-0.982421875,0.041503906,-0.12890625,1
-0.982421875,0.041503906,-0.12890625,1
-0.964111328,0.043212891,0.108398438,1
-0.964111328,0.043212891,0.108398438,1
-0.964111328,0.043212891,0.108398438,2
0.010498047,0.053955078,0.936279297,2
0.010498047,0.053955078,0.936279297,3
0.010498047,0.053955078,0.936279297,3
-0.086914063,0.072998047,0.974121094,3
-0.086914063,0.072998047,0.974121094,3
-0.086914063,0.072998047,0.974121094,3
-0.086914063,0.072998047,0.974121094,3
-0.114013672,0.090820313,0.976806641,3
-0.114013672,0.090820313,0.976806641,3
-0.114013672,0.090820313,0.976806641,3
-0.111816406,0.079101563,0.986572266,3
-0.111816406,0.079101563,0.986572266,3
-0.111816406,0.079101563,0.986572266,3
-0.121582031,0.078857422,0.980957031,3
-0.121582031,0.078857422,0.980957031,3
0,0,0,0
-0.978515625,0.047851563,-0.167724609,1
-0.978515625,0.047851563,-0.167724609,1
-0.978515625,0.047851563,-0.167724609,1
-0.978515625,0.047851563,-0.167724609,1
-0.983886719,0.043457031,-0.173583984,1
-0.983886719,0.043457031,-0.173583984,1
-0.983886719,0.043457031,-0.173583984,1
-0.741210938,0.164306641,-0.123291016,1
-0.741210938,0.164306641,-0.123291016,1
-0.741210938,0.164306641,-0.123291016,2
0.300048828,0.365234375,0.853027344,2
0.300048828,0.365234375,0.853027344,2
0.300048828,0.365234375,0.853027344,2
0.300048828,0.365234375,0.853027344,2
-0.152099609,0.045654297,1.005371094,2
-0.152099609,0.045654297,1.005371094,3
-0.152099609,0.045654297,1.005371094,3
-0.025390625,0.068359375,0.991699219,3
-0.025390625,0.068359375,0.991699219,3
-0.025390625,0.068359375,0.991699219,3
-0.027099609,0.07421875,0.996582031,3
-0.027099609,0.07421875,0.996582031,3
-0.027099609,0.07421875,0.996582031,3
0,0,0,0
-0.985107422,0.064208984,-0.103271484,1
-0.985107422,0.064208984,-0.103271484,1
-0.985107422,0.064208984,-0.103271484,1
-0.985107422,0.064208984,-0.103271484,1
-0.98828125,0.070556641,-0.104492188,1
-0.98828125,0.070556641,-0.104492188,1
-0.98828125,0.070556641,-0.104492188,1
-0.898193359,0.067871094,0.440673828,1
-0.898193359,0.067871094,0.440673828,1
-0.898193359,0.067871094,0.440673828,2
0.331542969,0.057128906,0.956542969,2
0.331542969,0.057128906,0.956542969,2
0.331542969,0.057128906,0.956542969,2
0.153076172,0.065917969,1.001708984,2
0.153076172,0.065917969,1.001708984,3
0.153076172,0.065917969,1.001708984,3
0.153076172,0.065917969,1.001708984,3
-0.020507813,0.067382813,0.990234375,3
-0.020507813,0.067382813,0.990234375,3
-0.020507813,0.067382813,0.990234375,3
-0.014404297,0.071289063,0.991943359,3
-0.014404297,0.071289063,0.991943359,3
0,0,0,0
-0.980224609,0.041748047,-0.14453125,1
-0.980224609,0.041748047,-0.14453125,1
-0.980224609,0.041748047,-0.14453125,1
-0.984375,0.041015625,-0.144287109,1
-0.984375,0.041015625,-0.144287109,1
-0.984375,0.041015625,-0.144287109,1
-0.984375,0.041015625,-0.144287109,2
-1.397216797,-0.027832031,0.139404297,2
-1.397216797,-0.027832031,0.139404297,2
-1.397216797,-0.027832031,0.139404297,2
0.200195313,0.118164063,0.986572266,2
0.200195313,0.118164063,0.986572266,3
0.200195313,0.118164063,0.986572266,3
-0.107666016,0.060302734,0.973632813,3
-0.107666016,0.060302734,0.973632813,3
-0.107666016,0.060302734,0.973632813,3
-0.107666016,0.060302734,0.973632813,3
-0.074707031,0.08984375,0.983886719,3
-0.074707031,0.08984375,0.983886719,3
-0.074707031,0.08984375,0.983886719,3
-0.083496094,0.093994141,0.986572266,3
-0.083496094,0.093994141,0.986572266,3
-0.083496094,0.093994141,0.986572266,3
-0.086669922,0.102539063,0.995605469,3
-0.086669922,0.102539063,0.995605469,3
0,0,0,0
-0.983398438,0.019775391,-0.147216797,1
-0.983398438,0.019775391,-0.147216797,1
-0.983398438,0.019775391,-0.147216797,1
-0.981201172,0.019287109,-0.152832031,1
-0.981201172,0.019287109,-0.152832031,1
-0.981201172,0.019287109,-0.152832031,1
-0.981201172,0.019287109,-0.152832031,2
-0.625976563,0.076171875,0.051025391,2
-0.625976563,0.076171875,0.051025391,2
-0.625976563,0.076171875,0.051025391,2
0.012939453,-0.167236328,0.9609375,2
0.012939453,-0.167236328,0.9609375,3
0.012939453,-0.167236328,0.9609375,3
-0.064697266,0.004882813,0.985351563,3
-0.064697266,0.004882813,0.985351563,3
-0.064697266,0.004882813,0.985351563,3
-0.064697266,0.004882813,0.985351563,3
-0.043945313,0.058837891,0.976074219,3
-0.043945313,0.058837891,0.976074219,3
-0.043945313,0.058837891,0.976074219,3
-0.032226563,0.059814453,0.992919922,3
-0.032226563,0.059814453,0.992919922,3
-0.032226563,0.059814453,0.992919922,3
0,0,0,0
-0.977294922,0.102783203,-0.195068359,1
-0.977294922,0.102783203,-0.195068359,1
-0.977294922,0.102783203,-0.195068359,1
-0.980224609,0.094726563,-0.184814453,1
-0.980224609,0.094726563,-0.184814453,1
-0.980224609,0.094726563,-0.184814453,1
-0.980224609,0.094726563,-0.184814453,1
-0.790283203,0.087402344,0.225341797,1
-0.790283203,0.087402344,0.225341797,1
-0.790283203,0.087402344,0.225341797,2
0.026611328,0.028564453,0.913330078,2
0.026611328,0.028564453,0.913330078,2
0.026611328,0.028564453,0.913330078,2
-0.196044922,0.044921875,1.010253906,2
-0.196044922,0.044921875,1.010253906,3
-0.196044922,0.044921875,1.010253906,3
-0.196044922,0.044921875,1.010253906,3
-0.055664063,0.093017578,0.997558594,3
-0.055664063,0.093017578,0.997558594,3
-0.055664063,0.093017578,0.997558594,3
-0.066894531,0.088867188,0.995117188,3
-0.066894531,0.088867188,0.995117188,3
-0.066894531,0.088867188,0.995117188,3
-0.057373047,0.093994141,0.983886719,3
-0.057373047,0.093994141,0.983886719,3
-0.057373047,0.093994141,0.983886719,3
-0.057373047,0.093994141,0.983886719,3
0,0,0,0
-0.962402344,0.014892578,-0.215576172,1
-0.962402344,0.014892578,-0.215576172,1
-0.962402344,0.014892578,-0.215576172,1
-0.962402344,0.014892578,-0.215576172,1
-0.958984375,-0.014160156,-0.213867188,1
-0.958984375,-0.014160156,-0.213867188,1
-0.958984375,-0.014160156,-0.213867188,2
-0.512451172,0.052978516,-0.368652344,2
-0.512451172,0.052978516,-0.368652344,2
-0.512451172,0.052978516,-0.368652344,2
-0.073242188,-0.286376953,-1.149169922,2
-0.073242188,-0.286376953,-1.149169922,3
-0.073242188,-0.286376953,-1.149169922,3
-0.146484375,-0.338134766,-0.929931641,3
-0.146484375,-0.338134766,-0.929931641,3
-0.146484375,-0.338134766,-0.929931641,3
-0.146484375,-0.338134766,-0.929931641,3
-0.052978516,-0.370361328,-0.972412109,3
-0.052978516,-0.370361328,-0.972412109,3
-0.052978516,-0.370361328,-0.972412109,3
-0.040283203,-0.337402344,-0.930419922,3
-0.040283203,-0.337402344,-0.930419922,3
-0.040283203,-0.337402344,-0.930419922,3
-0.309326172,0.046386719,-1.083007813,3
-0.309326172,0.046386719,-1.083007813,3
0,0,0,0
-0.975830078,-0.034423828,-0.183349609,1
-0.975830078,-0.034423828,-0.183349609,1
-0.975830078,-0.034423828,-0.183349609,1
-0.943603516,-0.068847656,-0.215576172,1
-0.943603516,-0.068847656,-0.215576172,1
-0.943603516,-0.068847656,-0.215576172,2
-4.991699219,-0.303466797,-4.043701172,2
-4.991699219,-0.303466797,-4.043701172,2
-4.991699219,-0.303466797,-4.043701172,2
-0.008300781,-0.011474609,-1.026367188,2
-0.008300781,-0.011474609,-1.026367188,3
-0.008300781,-0.011474609,-1.026367188,3
-0.007080078,-0.005859375,-1.021484375,3
-0.007080078,-0.005859375,-1.021484375,3
-0.007080078,-0.005859375,-1.021484375,3
-0.007080078,-0.005859375,-1.021484375,3
-0.005371094,-0.009277344,-1.021972656,3
-0.005371094,-0.009277344,-1.021972656,3
-0.006835938,-0.01171875,-1.021240234,3
0,0,0,0
-0.970947266,-0.041992188,-0.181640625,1
-0.970947266,-0.041992188,-0.181640625,1
-0.970947266,-0.041992188,-0.181640625,1
-0.970947266,-0.041992188,-0.181640625,1
-0.982421875,-0.049316406,-0.202148438,1
-0.982421875,-0.049316406,-0.202148438,1
-0.982421875,-0.049316406,-0.202148438,1
-0.725585938,0.3515625,-2.138427734,1
-0.725585938,0.3515625,-2.138427734,1
-0.725585938,0.3515625,-2.138427734,2
-0.212402344,-0.1953125,-0.881103516,2
-0.212402344,-0.1953125,-0.881103516,3
-0.212402344,-0.1953125,-0.881103516,3
-0.135009766,-0.263427734,-0.951660156,3
-0.135009766,-0.263427734,-0.951660156,3
-0.135009766,-0.263427734,-0.951660156,3
-0.14453125,-0.276611328,-0.961425781,3
-0.14453125,-0.276611328,-0.961425781,3
-0.14453125,-0.276611328,-0.961425781,3
-0.144287109,-0.3046875,-0.966308594,3
0,0,0,0
-0.981933594,0.024902344,-0.188964844,1
-0.981933594,0.024902344,-0.188964844,1
-0.981933594,0.024902344,-0.188964844,1
-0.981933594,0.024902344,-0.188964844,1
-0.951171875,0.081787109,-0.248535156,1
-0.951171875,0.081787109,-0.248535156,1
-0.951171875,0.081787109,-0.248535156,2
-0.377441406,-0.020507813,-1.020996094,2
-0.377441406,-0.020507813,-1.020996094,2
-0.377441406,-0.020507813,-1.020996094,2
0.220947266,0.276367188,-0.491210938,2
0.220947266,0.276367188,-0.491210938,3
0.220947266,0.276367188,-0.491210938,3
-0.005126953,0.156738281,-0.996337891,3
-0.005126953,0.156738281,-0.996337891,3
-0.005126953,0.156738281,-0.996337891,3
-0.107177734,0.079101563,-1.044921875,3
-0.107177734,0.079101563,-1.044921875,3
-0.118164063,0.087890625,-1.012939453,3
-0.118164063,0.087890625,-1.012939453,3
-0.118164063,0.087890625,-1.012939453,3
-0.118408203,0.070556641,-1.016601563,3
0,0,0,0
-0.967285156,0.182128906,-0.211181641,1
-0.967285156,0.182128906,-0.211181641,1
-0.967285156,0.182128906,-0.211181641,1
-0.967285156,0.182128906,-0.211181641,1
-0.946533203,0.220214844,-0.221435547,1
-0.946533203,0.220214844,-0.221435547,1
-0.946533203,0.220214844,-0.221435547,2
-0.505371094,0.156494141,-0.389404297,2
-0.505371094,0.156494141,-0.389404297,2
-0.505371094,0.156494141,-0.389404297,2
-0.024414063,-0.071777344,-0.984130859,2
-0.024414063,-0.071777344,-0.984130859,3
-0.024414063,-0.071777344,-0.984130859,3
-0.073974609,-0.110351563,-1.004150391,3
-0.073974609,-0.110351563,-1.004150391,3
-0.073974609,-0.110351563,-1.004150391,3
-0.073974609,-0.110351563,-1.004150391,3
-0.083740234,-0.114013672,-1.007080078,3
-0.083740234,-0.114013672,-1.007080078,3
-0.083740234,-0.114013672,-1.007080078,3
-0.100341797,-0.121337891,-1.002929688,3
0,0,0,0
-0.968261719,0.142822266,-0.188232422,1
-0.968261719,0.142822266,-0.188232422,1
-0.968261719,0.142822266,-0.188232422,1
-0.888916016,0.090087891,-0.341552734,1
-0.888916016,0.090087891,-0.341552734,1
-0.888916016,0.090087891,-0.341552734,1
-0.888916016,0.090087891,-0.341552734,1
0.799804688,-0.578857422,-6.428222656,1
0.799804688,-0.578857422,-6.428222656,1
0.799804688,-0.578857422,-6.428222656,2
0.263183594,-0.186035156,-0.955810547,2
0.263183594,-0.186035156,-0.955810547,3
0.263183594,-0.186035156,-0.955810547,3
0.244628906,-0.214355469,-0.956787109,3
0.244628906,-0.214355469,-0.956787109,3
0.244628906,-0.214355469,-0.956787109,3
0.240478516,-0.222167969,-0.958496094,3
0.240478516,-0.222167969,-0.958496094,3
0.240478516,-0.222167969,-0.958496094,3
0.235351563,-0.222412109,-0.960449219,3
0,0,0,0
-0.970947266,0.110351563,-0.179199219,1
-0.970947266,0.110351563,-0.179199219,1
-0.970947266,0.110351563,-0.179199219,1
-0.952636719,0.065429688,-0.266357422,1
-0.952636719,0.065429688,-0.266357422,1
-0.952636719,0.065429688,-0.266357422,1
-0.952636719,0.065429688,-0.266357422,2
0.359863281,0.480712891,-1.351806641,2
0.359863281,0.480712891,-1.351806641,2
0.359863281,0.480712891,-1.351806641,2
-0.128417969,-0.11328125,-0.992675781,2
-0.128417969,-0.11328125,-0.992675781,3
-0.128417969,-0.11328125,-0.992675781,3
-0.180664063,-0.192382813,-0.971923828,3
-0.180664063,-0.192382813,-0.971923828,3
-0.180664063,-0.192382813,-0.971923828,3
-0.180664063,-0.192382813,-0.971923828,3
-0.203613281,-0.177734375,-0.988037109,3
-0.203613281,-0.177734375,-0.988037109,3
-0.203613281,-0.177734375,-0.988037109,3
-0.208740234,-0.170410156,-0.986572266,3
0,0,0,0
-0.970703125,0.163818359,-0.19921875,1
-0.970703125,0.163818359,-0.19921875,1
-0.970703125,0.163818359,-0.19921875,1
-0.970703125,0.163818359,-0.19921875,1
-0.9296875,0.157470703,-0.263183594,1
-0.9296875,0.157470703,-0.263183594,1
-0.9296875,0.157470703,-0.263183594,2
0.147460938,0.021728516,-0.381591797,2
0.147460938,0.021728516,-0.381591797,3
0.147460938,0.021728516,-0.381591797,3
0.120117188,-0.06640625,-1.032470703,3
0.120117188,-0.06640625,-1.032470703,3
0.120117188,-0.06640625,-1.032470703,3
0.039794922,-0.098876953,-1.016601563,3
0.039794922,-0.098876953,-1.016601563,3
0.039794922,-0.098876953,-1.016601563,3
0.019042969,-0.08984375,-1.018798828,3
0.019042969,-0.08984375,-1.018798828,3
0.019042969,-0.08984375,-1.018798828,3
0,0,0,0
-0.992919922,0.123046875,-0.142089844,1
-0.992919922,0.123046875,-0.142089844,1
-0.992919922,0.123046875,-0.142089844,1
-0.914550781,0.212402344,-0.192382813,1
-0.914550781,0.212402344,-0.192382813,1
-0.914550781,0.212402344,-0.192382813,1
-0.914550781,0.212402344,-0.192382813,1
-0.779296875,0.084960938,-0.181396484,1
-0.779296875,0.084960938,-0.181396484,1
-0.779296875,0.084960938,-0.181396484,2
0.011962891,-0.078369141,-1.014160156,2
0.011962891,-0.078369141,-1.014160156,3
0.011962891,-0.078369141,-1.014160156,3
-0.170898438,-0.140869141,-0.98828125,3
-0.170898438,-0.140869141,-0.98828125,3
-0.170898438,-0.140869141,-0.98828125,3
-0.170898438,-0.140869141,-0.98828125,3
-0.194335938,-0.141845703,-0.991210938,3
-0.194335938,-0.141845703,-0.991210938,3
-0.194335938,-0.141845703,-0.991210938,3
-0.210449219,-0.142822266,-0.983886719,3
-0.210449219,-0.142822266,-0.983886719,3
-0.210449219,-0.142822266,-0.983886719,3
0,0,0,0
-0.97265625,0.148193359,0.015380859,1
-0.97265625,0.148193359,0.015380859,1
-0.97265625,0.148193359,0.015380859,1
-0.887695313,0.152832031,-0.047119141,1
-0.887695313,0.152832031,-0.047119141,1
-0.887695313,0.152832031,-0.047119141,1
-0.887695313,0.152832031,-0.047119141,2
0.028808594,0.021484375,-0.364501953,2
0.028808594,0.021484375,-0.364501953,2
0.028808594,0.021484375,-0.364501953,2
-0.464111328,-0.082519531,-0.900634766,2
-0.464111328,-0.082519531,-0.900634766,3
-0.464111328,-0.082519531,-0.900634766,3
-0.442626953,-0.102294922,-0.919677734,3
-0.442626953,-0.102294922,-0.919677734,3
-0.442626953,-0.102294922,-0.919677734,3
-0.442626953,-0.102294922,-0.919677734,3
-0.448486328,-0.107177734,-0.908935547,3
-0.448486328,-0.107177734,-0.908935547,3
-0.448486328,-0.107177734,-0.908935547,3
-0.471191406,-0.098144531,-0.889404297,3
-0.471191406,-0.098144531,-0.889404297,3
-0.471191406,-0.098144531,-0.889404297,3
-0.484375,-0.081054688,-0.876953125,3
-0.484375,-0.081054688,-0.876953125,3
0,0,0,0
-0.985595703,0.168945313,-0.0703125,1
-0.985595703,0.168945313,-0.0703125,1
-0.985595703,0.168945313,-0.0703125,1
-0.967041016,0.221679688,-0.133300781,1
-0.967041016,0.221679688,-0.133300781,1
-0.967041016,0.221679688,-0.133300781,1
-0.967041016,0.221679688,-0.133300781,2
-0.111328125,0.044433594,-0.606201172,2
-0.111328125,0.044433594,-0.606201172,3
-0.111328125,0.044433594,-0.606201172,3
-0.274658203,0.046386719,-0.932128906,3
-0.274658203,0.046386719,-0.932128906,3
-0.274658203,0.046386719,-0.932128906,3
-0.106201172,-0.086425781,-1.007080078,3
-0.106201172,-0.086425781,-1.007080078,3
-0.106201172,-0.086425781,-1.007080078,3
-0.106201172,-0.086425781,-1.007080078,3
-0.108642578,-0.083496094,-1.009033203,3
-0.108642578,-0.083496094,-1.009033203,3
-0.108642578,-0.083496094,-1.009033203,3
-0.101806641,-0.089111328,-1.007324219,3
-0.101806641,-0.089111328,-1.007324219,3
-0.101806641,-0.089111328,-1.007324219,3
-0.096679688,-0.096679688,-0.99609375,3
-0.096679688,-0.096679688,-0.99609375,3
-0.096679688,-0.096679688,-0.99609375,3
0,0,0,0
-0.959228516,0.135009766,-0.219238281,1
-0.959228516,0.135009766,-0.219238281,1
-0.959228516,0.135009766,-0.219238281,1
-0.953369141,0.145263672,-0.204345703,1
-0.953369141,0.145263672,-0.204345703,1
-0.953369141,0.145263672,-0.204345703,1
-0.953369141,0.145263672,-0.204345703,1
-0.769042969,0.139892578,-0.470947266,1
-0.769042969,0.139892578,-0.470947266,1
-0.769042969,0.139892578,-0.470947266,2
0.102783203,0.033935547,-0.893066406,2
0.102783203,0.033935547,-0.893066406,3
0.102783203,0.033935547,-0.893066406,3
0.021484375,-0.081054688,-1.009521484,3
0.021484375,-0.081054688,-1.009521484,3
0.021484375,-0.081054688,-1.009521484,3
0.021484375,-0.081054688,-1.009521484,3
0.026123047,-0.087402344,-1.012207031,3
0.026123047,-0.087402344,-1.012207031,3
0.026123047,-0.087402344,-1.012207031,3
0.020263672,-0.099853516,-1.011474609,3
0.020263672,-0.099853516,-1.011474609,3
0,0,0,0
-0.978271484,0.098144531,-0.107666016,1
-0.978271484,0.098144531,-0.107666016,1
-0.978271484,0.098144531,-0.107666016,1
-0.953857422,0.055664063,-0.185546875,1
-0.953857422,0.055664063,-0.185546875,1
-0.953857422,0.055664063,-0.185546875,1
-0.953857422,0.055664063,-0.185546875,1
-0.796142578,0.490478516,1.073486328,1
-0.796142578,0.490478516,1.073486328,1
-0.796142578,0.490478516,1.073486328,2
0.451660156,-0.226074219,-0.867431641,2
0.451660156,-0.226074219,-0.867431641,3
0.451660156,-0.226074219,-0.867431641,3
0.428710938,-0.230224609,-0.886962891,3
0.428710938,-0.230224609,-0.886962891,3
0.428710938,-0.230224609,-0.886962891,3
0.428710938,-0.230224609,-0.886962891,3
0.426025391,-0.232666016,-0.883789063,3
0.426025391,-0.232666016,-0.883789063,3
0.426025391,-0.232666016,-0.883789063,3
0.422851563,-0.229736328,-0.886230469,3
0.422851563,-0.229736328,-0.886230469,3
0.422851563,-0.229736328,-0.886230469,3
0,0,0,0
-0.963378906,0.151855469,-0.215087891,1
-0.963378906,0.151855469,-0.215087891,1
-0.963378906,0.151855469,-0.215087891,1
-0.963378906,0.151855469,-0.215087891,1
-0.942138672,0.182861328,-0.274414063,1
-0.942138672,0.182861328,-0.274414063,1
-0.942138672,0.182861328,-0.274414063,2
0.674072266,0.462402344,0.811767578,2
0.674072266,0.462402344,0.811767578,2
0.674072266,0.462402344,0.811767578,2
0.220947266,-0.363525391,-0.870117188,2
0.220947266,-0.363525391,-0.870117188,3
0.220947266,-0.363525391,-0.870117188,3
0.302001953,-0.278564453,-0.920898438,3
0.302001953,-0.278564453,-0.920898438,3
0.302001953,-0.278564453,-0.920898438,3
0.302001953,-0.278564453,-0.920898438,3
0.308105469,-0.287841797,-0.923583984,3
0.308105469,-0.287841797,-0.923583984,3
0.308105469,-0.287841797,-0.923583984,3
0.315673828,-0.296875,-0.917236328,3
0,0,0,0
-0.970947266,0.071044922,-0.187988281,1
-0.970947266,0.071044922,-0.187988281,1
-0.970947266,0.071044922,-0.187988281,1
-0.970947266,0.071044922,-0.187988281,1
-0.975341797,0.053466797,-0.1953125,1
-0.975341797,0.053466797,-0.1953125,1
-0.975341797,0.053466797,-0.1953125,1
-1.078857422,0.085449219,-0.287109375,1
-1.078857422,0.085449219,-0.287109375,1
-1.078857422,0.085449219,-0.287109375,2
-0.488525391,-0.549316406,-3.673583984,2
-0.488525391,-0.549316406,-3.673583984,2
-0.488525391,-0.549316406,-3.673583984,2
0.118408203,-0.056640625,-1.021484375,2
0.118408203,-0.056640625,-1.021484375,3
0.118408203,-0.056640625,-1.021484375,3
0.118408203,-0.056640625,-1.021484375,3
0.142333984,-0.067626953,-1.007568359,3
0.142333984,-0.067626953,-1.007568359,3
0.142333984,-0.067626953,-1.007568359,3
0.146972656,-0.090332031,-1.004394531,3
0.146972656,-0.090332031,-1.004394531,3
0.146972656,-0.090332031,-1.004394531,3
0,0,0,0
-0.925292969,0.146728516,-0.331542969,1
-0.925292969,0.146728516,-0.331542969,1
-0.925292969,0.146728516,-0.331542969,1
-0.896972656,0.203125,-0.346191406,1
-0.896972656,0.203125,-0.346191406,1
-0.896972656,0.203125,-0.346191406,1
-0.896972656,0.203125,-0.346191406,2
-0.610351563,0.493408203,-0.349609375,2
-0.610351563,0.493408203,-0.349609375,2
-0.610351563,0.493408203,-0.349609375,2
-0.002197266,-0.026123047,-1.017089844,2
-0.002197266,-0.026123047,-1.017089844,3
-0.002197266,-0.026123047,-1.017089844,3
-0.001464844,-0.016357422,-1.024169922,3
-0.001464844,-0.016357422,-1.024169922,3
0,0,0,0
-0.976074219,0.050292969,-0.117919922,1
-0.976074219,0.050292969,-0.117919922,1
-0.976074219,0.050292969,-0.117919922,1
-0.976074219,0.050292969,-0.117919922,1
-0.973144531,0.127441406,-0.177001953,1
-0.973144531,0.127441406,-0.177001953,1
-0.973144531,0.127441406,-0.177001953,2
-0.356201172,0.044433594,-0.311279297,2
-0.356201172,0.044433594,-0.311279297,2
-0.356201172,0.044433594,-0.311279297,2
0.12890625,-0.072509766,-1.112060547,2
0.12890625,-0.072509766,-1.112060547,3
0.12890625,-0.072509766,-1.112060547,3
0.044189453,-0.151855469,-1.004394531,3
0.044189453,-0.151855469,-1.004394531,3
0.044189453,-0.151855469,-1.004394531,3
0.044189453,-0.151855469,-1.004394531,3
0.043945313,-0.161865234,-0.997802734,3
0.043945313,-0.161865234,-0.997802734,3
0.043945313,-0.161865234,-0.997802734,3
0.037109375,-0.166748047,-1.003662109,3
0.037109375,-0.166748047,-1.003662109,3
0.037109375,-0.166748047,-1.003662109,3
0.046142578,-0.183349609,-0.990722656,3
0,0,0,0
-0.974853516,0.034423828,-0.130371094,1
-0.974853516,0.034423828,-0.130371094,1
-0.974853516,0.034423828,-0.130371094,1
-1.053222656,-0.004394531,-0.101318359,1
-1.053222656,-0.004394531,-0.101318359,1
-1.053222656,-0.004394531,-0.101318359,1
-1.053222656,-0.004394531,-0.101318359,2
-0.315185547,0.364501953,-1.657958984,2
-0.315185547,0.364501953,-1.657958984,2
-0.315185547,0.364501953,-1.657958984,2
-0.085205078,-0.23828125,-0.919189453,2
-0.085205078,-0.23828125,-0.919189453,3
-0.085205078,-0.23828125,-0.919189453,3
-0.036376953,-0.253173828,-0.963623047,3
-0.036376953,-0.253173828,-0.963623047,3
-0.036376953,-0.253173828,-0.963623047,3
-0.036376953,-0.253173828,-0.963623047,3
-0.029052734,-0.266113281,-0.965087891,3
-0.029052734,-0.266113281,-0.965087891,3
-0.029052734,-0.266113281,-0.965087891,3
-0.009521484,-0.266357422,-0.973144531,3
-0.009521484,-0.266357422,-0.973144531,3
0,0,0,0
-0.977294922,0.044677734,-0.16015625,1
-0.977294922,0.044677734,-0.16015625,1
-0.977294922,0.044677734,-0.16015625,1
-0.983642578,0.043701172,-0.161132813,1
-0.983642578,0.043701172,-0.161132813,1
-0.983642578,0.043701172,-0.161132813,1
-0.983642578,0.043701172,-0.161132813,2
-0.677246094,0.142333984,-0.13671875,2
-0.677246094,0.142333984,-0.13671875,2
-0.677246094,0.142333984,-0.13671875,2
-0.253173828,-0.280517578,-1.264404297,2
-0.253173828,-0.280517578,-1.264404297,2
-0.253173828,-0.280517578,-1.264404297,2
0.009521484,-0.310058594,-0.958984375,2
0.009521484,-0.310058594,-0.958984375,3
0.009521484,-0.310058594,-0.958984375,3
-0.033447266,-0.284667969,-0.938964844,3
-0.033447266,-0.284667969,-0.938964844,3
-0.033447266,-0.284667969,-0.938964844,3
-0.033447266,-0.284667969,-0.938964844,3
-0.025878906,-0.310302734,-0.955322266,3
-0.025878906,-0.310302734,-0.955322266,3
-0.025878906,-0.310302734,-0.955322266,3
-0.04296875,-0.285644531,-0.973144531,3
-0.04296875,-0.285644531,-0.973144531,3
-0.04296875,-0.285644531,-0.973144531,3
-0.025146484,-0.300048828,-0.960205078,3
0,0,0,0
-0.988525391,0.034912109,-0.120361328,1
-0.988525391,0.034912109,-0.120361328,1
-0.988525391,0.034912109,-0.120361328,1
-0.979003906,0.0390625,-0.115478516,1
-0.979003906,0.0390625,-0.115478516,1
-0.979003906,0.0390625,-0.115478516,1
-0.979003906,0.0390625,-0.115478516,1
-0.850097656,0.064697266,-0.088867188,1
-0.850097656,0.064697266,-0.088867188,1
-0.850097656,0.064697266,-0.088867188,2
0.237548828,-0.322753906,-1.040771484,2
0.237548828,-0.322753906,-1.040771484,2
0.237548828,-0.322753906,-1.040771484,2
-0.042236328,-0.173583984,-0.991210938,2
-0.042236328,-0.173583984,-0.991210938,3
-0.042236328,-0.173583984,-0.991210938,3
-0.042236328,-0.173583984,-0.991210938,3
-0.022216797,-0.180664063,-0.990234375,3
-0.022216797,-0.180664063,-0.990234375,3
-0.022216797,-0.180664063,-0.990234375,3
-0.017578125,-0.187744141,-1.003662109,3
-0.017578125,-0.187744141,-1.003662109,3
-0.017578125,-0.187744141,-1.003662109,3
-0.014648438,-0.199462891,-0.997314453,3
-0.014648438,-0.199462891,-0.997314453,3
-0.014648438,-0.199462891,-0.997314453,3
0,0,0,0
-0.980957031,-0.102294922,0.044189453,1
-0.980957031,-0.102294922,0.044189453,1
-0.980957031,-0.102294922,0.044189453,1
-0.967529297,-0.099121094,0.031005859,1
-0.967529297,-0.099121094,0.031005859,1
-0.967529297,-0.099121094,0.031005859,1
-0.967529297,-0.099121094,0.031005859,2
-0.525878906,0.110839844,-0.137939453,2
-0.525878906,0.110839844,-0.137939453,2
-0.525878906,0.110839844,-0.137939453,2
-0.022216797,-0.025634766,-1.004882813,2
-0.022216797,-0.025634766,-1.004882813,3
-0.022216797,-0.025634766,-1.004882813,3
-0.017578125,-0.026123047,-1.021728516,3
-0.017578125,-0.026123047,-1.021728516,3
-0.017578125,-0.026123047,-1.021728516,3
-0.017578125,-0.026123047,-1.021728516,3
-0.016845703,-0.030761719,-1.023681641,3
-0.016845703,-0.030761719,-1.023681641,3
-0.016845703,-0.030761719,-1.023681641,3
-0.015869141,-0.033447266,-1.021484375,3
-0.015869141,-0.033447266,-1.021484375,3
-0.015869141,-0.033447266,-1.021484375,3
0,0,0,0
-0.967529297,-0.150634766,0.098388672,1
-0.967529297,-0.150634766,0.098388672,1
-0.967529297,-0.150634766,0.098388672,1
-0.967529297,-0.150634766,0.098388672,1
-0.944335938,-0.162353516,-0.036621094,1
-0.944335938,-0.162353516,-0.036621094,1
-0.944335938,-0.162353516,-0.036621094,2
-0.233398438,-0.130615234,1.133544922,2
-0.233398438,-0.130615234,1.133544922,2
-0.233398438,-0.130615234,1.133544922,2
-0.031005859,-0.003173828,-1.026855469,2
-0.031005859,-0.003173828,-1.026855469,3
-0.031005859,-0.003173828,-1.026855469,3
-0.031005859,-0.003173828,-1.026855469,3
-0.014160156,-0.032958984,-1.023193359,3
-0.014160156,-0.032958984,-1.023193359,3
-0.014160156,-0.032958984,-1.023193359,3
-0.015625,-0.034179688,-1.016845703,3
-0.015625,-0.034179688,-1.016845703,3
-0.015625,-0.034179688,-1.016845703,3
-0.019042969,-0.034179688,-1.016357422,3
-0.019042969,-0.034179688,-1.016357422,3
0,0,0,0
-1.004394531,-0.163574219,0.017089844,1
-1.004394531,-0.163574219,0.017089844,1
-1.004394531,-0.163574219,0.017089844,1
-1.004394531,-0.163574219,0.017089844,1
-0.889160156,-0.192138672,-0.093017578,1
-0.889160156,-0.192138672,-0.093017578,1
-0.889160156,-0.192138672,-0.093017578,2
0.118408203,-0.102539063,-0.275634766,2
0.118408203,-0.102539063,-0.275634766,3
0.118408203,-0.102539063,-0.275634766,3
0.240722656,-0.881103516,0.292480469,3
0.240722656,-0.881103516,0.292480469,3
0.240722656,-0.881103516,0.292480469,3
0.240722656,-0.881103516,0.292480469,3
0.261230469,-0.902832031,0.223876953,3
0.261230469,-0.902832031,0.223876953,3
0.261230469,-0.902832031,0.223876953,3
0.262451172,-0.9140625,0.19140625,3
0.262451172,-0.9140625,0.19140625,3
0,0,0,0
-0.952636719,-0.206542969,0.111572266,1
-0.952636719,-0.206542969,0.111572266,1
-0.952636719,-0.206542969,0.111572266,1
-0.964355469,-0.214355469,0.08203125,1
-0.964355469,-0.214355469,0.08203125,1
-0.964355469,-0.214355469,0.08203125,1
-0.964355469,-0.214355469,0.08203125,1
-0.930175781,-0.15234375,-0.541015625,1
-0.930175781,-0.15234375,-0.541015625,1
-0.930175781,-0.15234375,-0.541015625,2
0.261962891,-0.968505859,-0.035888672,2
0.261962891,-0.968505859,-0.035888672,3
0.261962891,-0.968505859,-0.035888672,3
0.257324219,-0.933349609,0.029052734,3
0.257324219,-0.933349609,0.029052734,3
0.257324219,-0.933349609,0.029052734,3
0.236328125,-0.943115234,0.083740234,3
0.236328125,-0.943115234,0.083740234,3
0.236328125,-0.943115234,0.083740234,3
0.236328125,-0.943115234,0.083740234,3
0.2421875,-0.933105469,0.060058594,3
0.2421875,-0.933105469,0.060058594,3
0,0,0,0
-0.965576172,0.002685547,-0.224609375,1
-0.965576172,0.002685547,-0.224609375,1
-0.965576172,0.002685547,-0.224609375,1
-0.964111328,0.016357422,-0.234375,1
-0.964111328,0.016357422,-0.234375,1
-0.964111328,0.016357422,-0.234375,1
-0.964111328,0.016357422,-0.234375,2
-0.669921875,-0.082275391,-0.219726563,2
-0.669921875,-0.082275391,-0.219726563,2
-0.669921875,-0.082275391,-0.219726563,2
-0.064941406,-0.852050781,0.636474609,2
-0.064941406,-0.852050781,0.636474609,3
-0.064941406,-0.852050781,0.636474609,3
-0.106689453,-0.942382813,0.223876953,3
-0.106689453,-0.942382813,0.223876953,3
-0.106689453,-0.942382813,0.223876953,3
-0.106689453,-0.942382813,0.223876953,3
-0.089355469,-0.929443359,0.231201172,3
-0.089355469,-0.929443359,0.231201172,3
-0.089355469,-0.929443359,0.231201172,3
-0.084472656,-0.935546875,0.230712891,3
-0.084472656,-0.935546875,0.230712891,3
-0.084472656,-0.935546875,0.230712891,3
0,0,0,0
-0.973876953,-0.041748047,-0.182373047,1
-0.973876953,-0.041748047,-0.182373047,1
-0.973876953,-0.041748047,-0.182373047,1
-0.974365234,-0.028320313,-0.173583984,1
-0.974365234,-0.028320313,-0.173583984,1
-0.974365234,-0.028320313,-0.173583984,1
-0.974365234,-0.028320313,-0.173583984,1
-0.759521484,-0.018310547,-0.211425781,1
-0.759521484,-0.018310547,-0.211425781,1
-0.759521484,-0.018310547,-0.211425781,2
-0.004394531,-1.041259766,0.586914063,2
-0.004394531,-1.041259766,0.586914063,3
-0.004394531,-1.041259766,0.586914063,3
0.043457031,-0.936035156,0.163818359,3
0.043457031,-0.936035156,0.163818359,3
0.043457031,-0.936035156,0.163818359,3
0.043457031,-0.936035156,0.163818359,3
0.058837891,-0.947753906,0.201660156,3
0.058837891,-0.947753906,0.201660156,3
0.058837891,-0.947753906,0.201660156,3
0.048583984,-0.947509766,0.194091797,3
0.048583984,-0.947509766,0.194091797,3
0.048583984,-0.947509766,0.194091797,3
0.061767578,-0.945800781,0.198242188,3
0.061767578,-0.945800781,0.198242188,3
0,0,0,0
-0.975830078,0.004394531,-0.189941406,1
-0.975830078,0.004394531,-0.189941406,1
-0.975830078,0.004394531,-0.189941406,1
-0.975830078,0.004394531,-0.189941406,1
-0.970947266,0.009033203,-0.180908203,1
-0.970947266,0.009033203,-0.180908203,1
-0.970947266,0.009033203,-0.180908203,1
-0.91015625,-0.044677734,-0.225830078,1
-0.91015625,-0.044677734,-0.225830078,1
-0.91015625,-0.044677734,-0.225830078,2
0.499267578,-0.939941406,0.364257813,2
0.499267578,-0.939941406,0.364257813,2
0.499267578,-0.939941406,0.364257813,2
0.499267578,-0.939941406,0.364257813,2
0.068115234,-0.729492188,0.586181641,2
0.068115234,-0.729492188,0.586181641,3
0.068115234,-0.729492188,0.586181641,3
0.033203125,-0.842773438,0.492431641,3
0.033203125,-0.842773438,0.492431641,3
0.033203125,-0.842773438,0.492431641,3
0.031738281,-0.839599609,0.496826172,3
0.031738281,-0.839599609,0.496826172,3
0.031738281,-0.839599609,0.496826172,3
0.031738281,-0.839599609,0.496826172,3
0.020019531,-0.831054688,0.501464844,3
0.020019531,-0.831054688,0.501464844,3
0.020019531,-0.831054688,0.501464844,3
0,0,0,0
-0.97265625,0.077636719,-0.170898438,1
-0.97265625,0.077636719,-0.170898438,1
-0.97265625,0.077636719,-0.170898438,1
-0.97265625,0.077636719,-0.170898438,1
-0.978271484,0.075683594,-0.153808594,1
-0.978271484,0.075683594,-0.153808594,1
-0.978271484,0.075683594,-0.153808594,2
-0.608398438,0.040771484,-0.171386719,2
-0.608398438,0.040771484,-0.171386719,2
-0.608398438,0.040771484,-0.171386719,2
0.219970703,-0.510742188,0.434082031,2
0.219970703,-0.510742188,0.434082031,2
0.219970703,-0.510742188,0.434082031,2
0.1171875,-0.977783203,-0.006103516,2
0.1171875,-0.977783203,-0.006103516,3
0.1171875,-0.977783203,-0.006103516,3
0.1171875,-0.977783203,-0.006103516,3
0.068359375,-0.966064453,0.030761719,3
0.068359375,-0.966064453,0.030761719,3
0.068359375,-0.966064453,0.030761719,3
0.055908203,-0.966796875,0.034912109,3
0.055908203,-0.966796875,0.034912109,3
0.055908203,-0.966796875,0.034912109,3
0.043457031,-0.96875,0.041015625,3
0.043457031,-0.96875,0.041015625,3
0.043457031,-0.96875,0.041015625,3
0.043457031,-0.96875,0.041015625,3
0,0,0,0
-0.974365234,0.057373047,-0.189697266,1
-0.974365234,0.057373047,-0.189697266,1
-0.974365234,0.057373047,-0.189697266,1
-0.974365234,0.057373047,-0.189697266,1
-0.964111328,0.057373047,-0.17578125,1
-0.964111328,0.057373047,-0.17578125,1
-0.964111328,0.057373047,-0.17578125,1
-0.950195313,0.133789063,-0.280517578,1
-0.950195313,0.133789063,-0.280517578,1
-0.950195313,0.133789063,-0.280517578,2
-0.499267578,-0.062011719,-0.20703125,2
-0.499267578,-0.062011719,-0.20703125,2
-0.499267578,-0.062011719,-0.20703125,2
0.557128906,-0.772705078,0.639404297,2
0.557128906,-0.772705078,0.639404297,2
0.557128906,-0.772705078,0.639404297,2
0.557128906,-0.772705078,0.639404297,2
0.114990234,-0.951660156,0.163574219,2
0.114990234,-0.951660156,0.163574219,3
0.114990234,-0.951660156,0.163574219,3
0.135253906,-0.962402344,0.173828125,3
0.135253906,-0.962402344,0.173828125,3
0.135253906,-0.962402344,0.173828125,3
0.122558594,-0.940185547,0.203125,3
0.122558594,-0.940185547,0.203125,3
0.122558594,-0.940185547,0.203125,3
0.122558594,-0.940185547,0.203125,3
0,0,0,0
-0.962646484,0.008056641,-0.247558594,1
-0.962646484,0.008056641,-0.247558594,1
-0.962646484,0.008056641,-0.247558594,1
-0.962646484,0.008056641,-0.247558594,1
-0.961914063,0.007324219,-0.254882813,1
-0.961914063,0.007324219,-0.254882813,1
-0.961914063,0.007324219,-0.254882813,2
-0.631835938,0.024902344,-0.295654297,2
-0.631835938,0.024902344,-0.295654297,2
-0.631835938,0.024902344,-0.295654297,2
0.450439453,-0.8046875,0.906494141,2
0.450439453,-0.8046875,0.906494141,2
0.450439453,-0.8046875,0.906494141,2
0.133300781,-0.885009766,0.212646484,2
0.133300781,-0.885009766,0.212646484,3
0.133300781,-0.885009766,0.212646484,3
0.133300781,-0.885009766,0.212646484,3
0.066162109,-0.94921875,0.156494141,3
0.066162109,-0.94921875,0.156494141,3
0.066162109,-0.94921875,0.156494141,3
0.065917969,-0.948730469,0.182373047,3
0.065917969,-0.948730469,0.182373047,3
0.065917969,-0.948730469,0.182373047,3
0.065673828,-0.946289063,0.195556641,3
0.065673828,-0.946289063,0.195556641,3
0.065673828,-0.946289063,0.195556641,3
0,0,0,0
-0.951416016,-0.023925781,-0.291992188,1
-0.951416016,-0.023925781,-0.291992188,1
-0.951416016,-0.023925781,-0.291992188,1
-0.951416016,-0.023925781,-0.291992188,1
-0.952636719,-0.029541016,-0.296875,1
-0.952636719,-0.029541016,-0.296875,1
-0.952636719,-0.029541016,-0.296875,1
-0.739013672,-0.023925781,-0.291503906,1
-0.739013672,-0.023925781,-0.291503906,1
-0.739013672,-0.023925781,-0.291503906,2
0.338378906,-0.610107422,0.718017578,2
0.338378906,-0.610107422,0.718017578,2
0.338378906,-0.610107422,0.718017578,2
-0.112548828,-1.058105469,0.052246094,2
-0.112548828,-1.058105469,0.052246094,3
-0.112548828,-1.058105469,0.052246094,3
-0.112548828,-1.058105469,0.052246094,3
0.030517578,-0.944335938,0.194335938,3
0.030517578,-0.944335938,0.194335938,3
0.030517578,-0.944335938,0.194335938,3
0.023193359,-0.952392578,0.192382813,3
0.023193359,-0.952392578,0.192382813,3
0.023193359,-0.952392578,0.192382813,3
0.014160156,-0.946777344,0.213134766,3
0.014160156,-0.946777344,0.213134766,3
0.014160156,-0.946777344,0.213134766,3
0.014160156,-0.946777344,0.213134766,3
0.012695313,-0.936523438,0.245117188,3
0,0,0,0
-0.952636719,-0.002685547,-0.288085938,1
-0.952636719,-0.002685547,-0.288085938,1
-0.952636719,-0.002685547,-0.288085938,1
-0.952636719,-0.002685547,-0.288085938,1
-0.950683594,0.010498047,-0.295654297,1
-0.950683594,0.010498047,-0.295654297,1
-0.950683594,0.010498047,-0.295654297,1
-0.667724609,-0.138916016,-0.344482422,1
-0.667724609,-0.138916016,-0.344482422,1
-0.667724609,-0.138916016,-0.344482422,2
0.111572266,-0.803466797,1.120605469,2
0.111572266,-0.803466797,1.120605469,2
0.111572266,-0.803466797,1.120605469,2
0.111572266,-0.803466797,1.120605469,2
0.009521484,-0.935302734,0.18359375,2
0.009521484,-0.935302734,0.18359375,3
0.009521484,-0.935302734,0.18359375,3
0.032958984,-0.953613281,0.171386719,3
0.032958984,-0.953613281,0.171386719,3
0.032958984,-0.953613281,0.171386719,3
0.038574219,-0.952392578,0.16796875,3
0.038574219,-0.952392578,0.16796875,3
0.038574219,-0.952392578,0.16796875,3
0.038574219,-0.952392578,0.16796875,3
0.042480469,-0.953125,0.174316406,3
0,0,0,0
-0.970458984,0.023193359,-0.116210938,1
-0.970458984,0.023193359,-0.116210938,1
-0.970458984,0.023193359,-0.116210938,1
-0.970458984,0.023193359,-0.116210938,1
-0.958740234,0.033447266,-0.150390625,1
-0.958740234,0.033447266,-0.150390625,1
-0.958740234,0.033447266,-0.150390625,1
-1.000732422,-0.026367188,-0.276123047,1
-1.000732422,-0.026367188,-0.276123047,1
-1.000732422,-0.026367188,-0.276123047,2
-0.539550781,-0.026855469,-0.212890625,2
-0.539550781,-0.026855469,-0.212890625,2
-0.539550781,-0.026855469,-0.212890625,2
-0.000732422,0.758300781,0.173828125,2
-0.000732422,0.758300781,0.173828125,3
-0.000732422,0.758300781,0.173828125,3
-0.000732422,0.758300781,0.173828125,3
-0.137207031,0.997314453,-0.0234375,3
-0.137207031,0.997314453,-0.0234375,3
-0.137207031,0.997314453,-0.0234375,3
-0.109375,1.022216797,-0.031005859,3
-0.109375,1.022216797,-0.031005859,3
-0.109375,1.022216797,-0.031005859,3
-0.108398438,1.019287109,-0.0234375,3
-0.108398438,1.019287109,-0.0234375,3
-0.108398438,1.019287109,-0.0234375,3
-0.108398438,1.019287109,-0.0234375,3
-0.11328125,1.022216797,-0.015869141,3
0,0,0,0
-0.978027344,0.050537109,-0.153076172,1
-0.978027344,0.050537109,-0.153076172,1
-0.978027344,0.050537109,-0.153076172,1
-0.978027344,0.050537109,-0.153076172,1
-0.96875,0.051757813,-0.143066406,1
-0.96875,0.051757813,-0.143066406,1
-0.96875,0.051757813,-0.143066406,1
-0.727539063,0.192382813,-0.128662109,1
-0.727539063,0.192382813,-0.128662109,1
-0.727539063,0.192382813,-0.128662109,2
0.178466797,1.119873047,0.071533203,2
0.178466797,1.119873047,0.071533203,3
0.178466797,1.119873047,0.071533203,3
-0.112792969,1.024169922,0.022949219,3
-0.112792969,1.024169922,0.022949219,3
-0.112792969,1.024169922,0.022949219,3
-0.112792969,1.024169922,0.022949219,3
-0.091064453,1.017578125,0.041259766,3
-0.091064453,1.017578125,0.041259766,3
-0.091064453,1.017578125,0.041259766,3
-0.085205078,1.017822266,0.051269531,3
-0.085205078,1.017822266,0.051269531,3
-0.085205078,1.017822266,0.051269531,3
-0.085693359,1.025390625,0.050292969,3
-0.085693359,1.025390625,0.050292969,3
-0.085693359,1.025390625,0.050292969,3
0,0,0,0
-0.986083984,0.105224609,-0.091308594,1
-0.986083984,0.105224609,-0.091308594,1
-0.986083984,0.105224609,-0.091308594,1
-0.986083984,0.105224609,-0.091308594,1
-1.000244141,0.138183594,-0.125,1
-1.000244141,0.138183594,-0.125,1
-1.000244141,0.138183594,-0.125,1
-0.888183594,0.001708984,-0.267089844,1
-0.888183594,0.001708984,-0.267089844,1
-0.888183594,0.001708984,-0.267089844,2
0.147460938,2.269287109,0.286376953,2
0.147460938,2.269287109,0.286376953,2
0.147460938,2.269287109,0.286376953,2
0.045410156,1.045410156,-0.016601563,2
0.045410156,1.045410156,-0.016601563,3
0.045410156,1.045410156,-0.016601563,3
0.045410156,1.045410156,-0.016601563,3
0.092285156,1.018066406,0.075683594,3
0.092285156,1.018066406,0.075683594,3
0.092285156,1.018066406,0.075683594,3
0.100341797,1.014404297,0.097412109,3
0.100341797,1.014404297,0.097412109,3
0.100341797,1.014404297,0.097412109,3
0.101074219,1.010253906,0.124755859,3
0.101074219,1.010253906,0.124755859,3
0.101074219,1.010253906,0.124755859,3
0.101074219,1.010253906,0.124755859,3
0.106445313,1.012695313,0.116455078,3
0,0,0,0
-0.971191406,0.120849609,-0.120605469,1
-0.971191406,0.120849609,-0.120605469,1
-0.971191406,0.120849609,-0.120605469,1
-0.979736328,0.118652344,-0.147460938,1
-0.979736328,0.118652344,-0.147460938,1
-0.979736328,0.118652344,-0.147460938,1
-0.979736328,0.118652344,-0.147460938,1
-0.888427734,0.107666016,-0.343505859,1
-0.888427734,0.107666016,-0.343505859,1
-0.888427734,0.107666016,-0.343505859,1
-0.882324219,0.061035156,-0.290283203,1
-0.882324219,0.061035156,-0.290283203,1
-0.882324219,0.061035156,-0.290283203,2
1.459472656,0.944091797,-0.026123047,2
1.459472656,0.944091797,-0.026123047,2
1.459472656,0.944091797,-0.026123047,2
1.459472656,0.944091797,-0.026123047,2
-0.104736328,1.030517578,-0.055908203,2
-0.104736328,1.030517578,-0.055908203,3
-0.104736328,1.030517578,-0.055908203,3
-0.116455078,1.01953125,-0.035888672,3
-0.116455078,1.01953125,-0.035888672,3
-0.116455078,1.01953125,-0.035888672,3
-0.117431641,1.0234375,-0.023193359,3
-0.117431641,1.0234375,-0.023193359,3
-0.117431641,1.0234375,-0.023193359,3
-0.117431641,1.0234375,-0.023193359,3
-0.116699219,1.021484375,-0.021972656,3
0,0,0,0
-0.963623047,0.026367188,-0.230712891,1
-0.963623047,0.026367188,-0.230712891,1
-0.963623047,0.026367188,-0.230712891,1
-0.963623047,0.026367188,-0.230712891,1
-0.972167969,0.053710938,-0.232666016,1
-0.972167969,0.053710938,-0.232666016,1
-0.972167969,0.053710938,-0.232666016,1
-0.919921875,-0.004638672,-0.387939453,1
-0.919921875,-0.004638672,-0.387939453,1
-0.919921875,-0.004638672,-0.387939453,2
0.316162109,1.312988281,-0.59765625,2
0.316162109,1.312988281,-0.59765625,2
0.316162109,1.312988281,-0.59765625,2
-0.119873047,1.044677734,-0.172119141,2
-0.119873047,1.044677734,-0.172119141,3
-0.119873047,1.044677734,-0.172119141,3
-0.119873047,1.044677734,-0.172119141,3
-0.078613281,1.020263672,-0.102539063,3
-0.078613281,1.020263672,-0.102539063,3
-0.078613281,1.020263672,-0.102539063,3
-0.069091797,1.027099609,-0.093017578,3
-0.069091797,1.027099609,-0.093017578,3
-0.069091797,1.027099609,-0.093017578,3
-0.075439453,1.026611328,-0.079345703,3
-0.075439453,1.026611328,-0.079345703,3
-0.075439453,1.026611328,-0.079345703,3
-0.075439453,1.026611328,-0.079345703,3
0,0,0,0
-0.943359375,0.041748047,-0.266357422,1
-0.943359375,0.041748047,-0.266357422,1
-0.943359375,0.041748047,-0.266357422,1
-0.964599609,0.02734375,-0.288818359,1
-0.964599609,0.02734375,-0.288818359,1
-0.964599609,0.02734375,-0.288818359,1
-0.964599609,0.02734375,-0.288818359,1
-0.959472656,0.016601563,-0.353027344,1
-0.959472656,0.016601563,-0.353027344,1
-0.959472656,0.016601563,-0.353027344,2
-0.527832031,-0.009521484,-0.262207031,2
-0.527832031,-0.009521484,-0.262207031,2
-0.527832031,-0.009521484,-0.262207031,2
0.683349609,1.258056641,0.214355469,2
0.683349609,1.258056641,0.214355469,2
0.683349609,1.258056641,0.214355469,2
0.683349609,1.258056641,0.214355469,2
-0.112060547,1.029296875,-0.055419922,2
-0.112060547,1.029296875,-0.055419922,3
-0.112060547,1.029296875,-0.055419922,3
-0.091308594,1.021484375,-0.040039063,3
-0.091308594,1.021484375,-0.040039063,3
-0.091308594,1.021484375,-0.040039063,3
-0.090332031,1.024658203,-0.046875,3
-0.090332031,1.024658203,-0.046875,3
-0.090332031,1.024658203,-0.046875,3
-0.086425781,1.025634766,-0.033691406,3
-0.086425781,1.025634766,-0.033691406,3
-0.086425781,1.025634766,-0.033691406,3
0,0,0,0
-0.968994141,0.020019531,-0.213867188,1
-0.968994141,0.020019531,-0.213867188,1
-0.968994141,0.020019531,-0.213867188,1
-0.968994141,0.020019531,-0.213867188,1
-0.962890625,0.012695313,-0.21875,1
-0.962890625,0.012695313,-0.21875,1
-0.962890625,0.012695313,-0.21875,1
-0.947509766,0.117431641,-0.265136719,1
-0.947509766,0.117431641,-0.265136719,1
-0.947509766,0.117431641,-0.265136719,1
-0.727539063,-0.033935547,-0.310302734,1
-0.727539063,-0.033935547,-0.310302734,1
-0.727539063,-0.033935547,-0.310302734,2
-0.097900391,1.035400391,0.064941406,2
-0.097900391,1.035400391,0.064941406,3
-0.097900391,1.035400391,0.064941406,3
-0.097900391,1.035400391,0.064941406,3
-0.069824219,1.044677734,-0.069824219,3
-0.069824219,1.044677734,-0.069824219,3
-0.069824219,1.044677734,-0.069824219,3
-0.068115234,1.025390625,-0.028808594,3
-0.068115234,1.025390625,-0.028808594,3
-0.068115234,1.025390625,-0.028808594,3
-0.060058594,1.025634766,-0.027587891,3
-0.060058594,1.025634766,-0.027587891,3
0,0,0,0
-0.951904297,-0.051269531,-0.268554688,1
-0.951904297,-0.051269531,-0.268554688,1
-0.951904297,-0.051269531,-0.268554688,1
-0.933349609,-0.016113281,-0.304931641,1
-0.933349609,-0.016113281,-0.304931641,1
-0.933349609,-0.016113281,-0.304931641,1
-0.933349609,-0.016113281,-0.304931641,1
-0.914306641,-0.108154297,-0.334472656,1
-0.914306641,-0.108154297,-0.334472656,1
-0.914306641,-0.108154297,-0.334472656,1
-0.782958984,-0.022949219,-0.44140625,1
-0.782958984,-0.022949219,-0.44140625,1
-0.782958984,-0.022949219,-0.44140625,2
0.047119141,1.106445313,0.200195313,2
0.047119141,1.106445313,0.200195313,3
0.047119141,1.106445313,0.200195313,3
-0.088134766,1.021240234,0.078857422,3
-0.088134766,1.021240234,0.078857422,3
-0.088134766,1.021240234,0.078857422,3
-0.112548828,1.017333984,0.080078125,3
-0.112548828,1.017333984,0.080078125,3
-0.112548828,1.017333984,0.080078125,3
-0.110595703,1.019042969,0.099121094,3
-0.110595703,1.019042969,0.099121094,3
-0.110595703,1.019042969,0.099121094,3
-0.110595703,1.019042969,0.099121094,3
0,0,0,0
-0.972412109,0.089111328,-0.2265625,1
-0.972412109,0.089111328,-0.2265625,1
-0.972412109,0.089111328,-0.2265625,1
-0.972412109,0.089111328,-0.2265625,1
-0.961181641,0.088378906,-0.197998047,1
-0.961181641,0.088378906,-0.197998047,1
-0.961181641,0.088378906,-0.197998047,2
-0.407958984,0.181884766,-0.187744141,2
-0.407958984,0.181884766,-0.187744141,2
-0.407958984,0.181884766,-0.187744141,2
0.017822266,0.811279297,0.490722656,2
0.017822266,0.811279297,0.490722656,2
0.017822266,0.811279297,0.490722656,2
-0.127929688,1.016601563,0.107910156,2
-0.127929688,1.016601563,0.107910156,3
-0.127929688,1.016601563,0.107910156,3
-0.127929688,1.016601563,0.107910156,3
-0.0703125,1.018554688,0.129882813,3
-0.0703125,1.018554688,0.129882813,3
-0.0703125,1.018554688,0.129882813,3
-0.073974609,1.009765625,0.164794922,3
-0.073974609,1.009765625,0.164794922,3
-0.073974609,1.009765625,0.164794922,3
0,0,0,0
-0.965087891,-0.005126953,-0.212646484,1
-0.965087891,-0.005126953,-0.212646484,1
-0.965087891,-0.005126953,-0.212646484,1
-1.001708984,0.053710938,-0.206298828,1
-1.001708984,0.053710938,-0.206298828,1
-1.001708984,0.053710938,-0.206298828,1
-1.001708984,0.053710938,-0.206298828,1
-0.945556641,-0.073730469,-0.301757813,1
-0.945556641,-0.073730469,-0.301757813,1
-0.945556641,-0.073730469,-0.301757813,2
-2.512451172,2.886474609,-4.011230469,2
-2.512451172,2.886474609,-4.011230469,2
-2.512451172,2.886474609,-4.011230469,2
-0.265136719,1.034179688,-0.202148438,2
-0.265136719,1.034179688,-0.202148438,3
-0.265136719,1.034179688,-0.202148438,3
-0.265136719,1.034179688,-0.202148438,3
-0.108398438,1.020019531,-0.150878906,3
-0.108398438,1.020019531,-0.150878906,3
-0.108398438,1.020019531,-0.150878906,3
-0.096191406,1.020019531,-0.134277344,3
-0.096191406,1.020019531,-0.134277344,3
-0.096191406,1.020019531,-0.134277344,3
-0.094482422,1.020996094,-0.128662109,3
-0.094482422,1.020996094,-0.128662109,3
-0.094482422,1.020996094,-0.128662109,3
-0.094482422,1.020996094,-0.128662109,3
-0.091552734,1.017089844,-0.113037109,3
-0.091552734,1.017089844,-0.113037109,3
-0.091552734,1.017089844,-0.113037109,3
-0.096191406,1.020019531,-0.133300781,3
-0.096191406,1.020019531,-0.133300781,3
0,0,0,0
-0.985351563,0.154052734,-0.057617188,1
-0.985351563,0.154052734,-0.057617188,1
-0.985351563,0.154052734,-0.057617188,1
-0.985351563,0.154052734,-0.057617188,1
-0.833984375,0.092041016,-0.199951172,4
-0.833984375,0.092041016,-0.199951172,4
-0.833984375,0.092041016,-0.199951172,4
-0.939941406,0.038330078,-0.526855469,4
-0.939941406,0.038330078,-0.526855469,4
-0.939941406,0.038330078,-0.526855469,4
-0.974609375,0.070800781,0.140136719,4
-0.974609375,0.070800781,0.140136719,4
-0.974609375,0.070800781,0.140136719,4
-1.008056641,0.057128906,-0.188476563,4
-1.008056641,0.057128906,-0.188476563,4
-1.008056641,0.057128906,-0.188476563,4
-1.008056641,0.057128906,-0.188476563,4
-0.841552734,0.040283203,-0.571777344,1
-0.841552734,0.040283203,-0.571777344,1
-0.841552734,0.040283203,-0.571777344,1
-0.960205078,0.088623047,-0.178710938,1
-0.960205078,0.088623047,-0.178710938,1
-0.960205078,0.088623047,-0.178710938,1
-0.935546875,0.107666016,-0.270507813,1
-0.935546875,0.107666016,-0.270507813,1
-0.935546875,0.107666016,-0.270507813,1
-0.935546875,0.107666016,-0.270507813,1
-0.761474609,0.031005859,-0.555908203,4
-0.761474609,0.031005859,-0.555908203,4
-0.761474609,0.031005859,-0.555908203,4
-0.968505859,0.032958984,-0.164550781,4
-0.968505859,0.032958984,-0.164550781,4
-0.968505859,0.032958984,-0.164550781,4
-0.971435547,0.077636719,0.157470703,4
-0.971435547,0.077636719,0.157470703,4
-0.971435547,0.077636719,0.157470703,4
-0.971435547,0.077636719,0.157470703,4
-0.961914063,0.028076172,-0.325439453,4
-0.961914063,0.028076172,-0.325439453,4
-0.961914063,0.028076172,-0.325439453,4
-0.858642578,-0.007568359,-0.546630859,1
-0.858642578,-0.007568359,-0.546630859,1
-0.858642578,-0.007568359,-0.546630859,1
-0.961181641,0.107177734,-0.099609375,1
-0.961181641,0.107177734,-0.099609375,1
-0.961181641,0.107177734,-0.099609375,1
-0.961181641,0.107177734,-0.099609375,1
-0.971435547,0.102539063,-0.176513672,1
-0.971435547,0.102539063,-0.176513672,1
-0.971435547,0.102539063,-0.176513672,1
-0.802001953,-0.001708984,-0.579101563,4
-0.802001953,-0.001708984,-0.579101563,4
-0.802001953,-0.001708984,-0.579101563,4
-0.972167969,0.015136719,-0.205810547,4
-0.972167969,0.015136719,-0.205810547,4
-0.972167969,0.015136719,-0.205810547,4
-0.972167969,0.015136719,-0.205810547,4
-0.984863281,0.070800781,0.104248047,4
-0.984863281,0.070800781,0.104248047,4
-0.984863281,0.070800781,0.104248047,4
-0.952636719,0.006835938,-0.499511719,4
-0.952636719,0.006835938,-0.499511719,4
-0.952636719,0.006835938,-0.499511719,4
-0.8203125,0.054199219,-0.667480469,1
-0.8203125,0.054199219,-0.667480469,1
-0.8203125,0.054199219,-0.667480469,1
-0.935058594,0.102783203,-0.165527344,1
-0.935058594,0.102783203,-0.165527344,1
-0.935058594,0.102783203,-0.165527344,1
-0.935058594,0.102783203,-0.165527344,1
-0.960205078,0.086669922,-0.251708984,1
-0.960205078,0.086669922,-0.251708984,1
-0.960205078,0.086669922,-0.251708984,1
-0.867919922,0.021484375,-0.499267578,4
-0.867919922,0.021484375,-0.499267578,4
-0.867919922,0.021484375,-0.499267578,4
-0.884521484,-0.055908203,-0.583496094,4
-0.884521484,-0.055908203,-0.583496094,4
-0.884521484,-0.055908203,-0.583496094,4
-0.884521484,-0.055908203,-0.583496094,4
-0.971435547,0.063720703,0.146240234,4
-0.971435547,0.063720703,0.146240234,4
-0.971435547,0.063720703,0.146240234,4
-0.991699219,0.040039063,-0.045410156,4
-0.991699219,0.040039063,-0.045410156,4
-0.991699219,0.040039063,-0.045410156,4
-0.84765625,-0.044433594,-0.688232422,1
-0.84765625,-0.044433594,-0.688232422,1
-0.84765625,-0.044433594,-0.688232422,1
-0.84765625,-0.044433594,-0.688232422,1
-0.931884766,0.063476563,-0.259277344,1
-0.931884766,0.063476563,-0.259277344,1
-0.931884766,0.063476563,-0.259277344,1
-0.977294922,0.072021484,-0.200439453,1
-0.977294922,0.072021484,-0.200439453,1
-0.977294922,0.072021484,-0.200439453,1
-0.925537109,0.043457031,-0.412353516,1
-0.925537109,0.043457031,-0.412353516,1
-0.925537109,0.043457031,-0.412353516,1
-0.925537109,0.043457031,-0.412353516,1
-0.7890625,-0.022705078,-0.665527344,4
-0.7890625,-0.022705078,-0.665527344,4
-0.7890625,-0.022705078,-0.665527344,4
-0.979980469,0.072021484,0.021484375,4
-0.979980469,0.072021484,0.021484375,4
-0.979980469,0.072021484,0.021484375,4
-0.965820313,0.06640625,0.166503906,4
-0.965820313,0.06640625,0.166503906,4
-0.965820313,0.06640625,0.166503906,4
-0.971435547,0.009277344,-0.265380859,4
-0.971435547,0.009277344,-0.265380859,4
-0.971435547,0.009277344,-0.265380859,4
-0.971435547,0.009277344,-0.265380859,4
-0.756347656,-0.028564453,-0.681884766,1
-0.756347656,-0.028564453,-0.681884766,1
-0.756347656,-0.028564453,-0.681884766,1
-0.862060547,0.057861328,-0.447753906,1
-0.862060547,0.057861328,-0.447753906,1
-0.862060547,0.057861328,-0.447753906,1
-0.936035156,0.053955078,-0.235595703,1
-0.936035156,0.053955078,-0.235595703,1
-0.936035156,0.053955078,-0.235595703,1
-0.936035156,0.053955078,-0.235595703,1
-0.792480469,0.065917969,-0.512939453,4
-0.792480469,0.065917969,-0.512939453,4
-0.792480469,0.065917969,-0.512939453,4
-0.802978516,-0.022216797,-0.620117188,4
-0.802978516,-0.022216797,-0.620117188,4
-0.802978516,-0.022216797,-0.620117188,4
-0.978027344,0.040039063,0.002685547,4
-0.978027344,0.040039063,0.002685547,4
-0.978027344,0.040039063,0.002685547,4
-0.978027344,0.040039063,0.002685547,4
-0.982910156,0.066650391,0.009521484,4
-0.982910156,0.066650391,0.009521484,4
-0.982910156,0.066650391,0.009521484,4
-0.897216797,-0.027587891,-0.599609375,1
-0.897216797,-0.027587891,-0.599609375,1
-0.897216797,-0.027587891,-0.599609375,1
-0.857666016,0.034912109,-0.4921875,1
-0.857666016,0.034912109,-0.4921875,1
-0.857666016,0.034912109,-0.4921875,1
-0.857666016,0.034912109,-0.4921875,1
-0.977539063,0.116210938,-0.223144531,1
-0.977539063,0.116210938,-0.223144531,1
-0.977539063,0.116210938,-0.223144531,1
-0.931396484,0.057617188,-0.294921875,4
-0.931396484,0.057617188,-0.294921875,4
-0.931396484,0.057617188,-0.294921875,4
-0.796875,0.031005859,-0.594970703,4
-0.796875,0.031005859,-0.594970703,4
-0.796875,0.031005859,-0.594970703,4
-0.95703125,0.011230469,-0.228027344,4
-0.95703125,0.011230469,-0.228027344,4
-0.95703125,0.011230469,-0.228027344,4
-0.95703125,0.011230469,-0.228027344,4
-0.984130859,0.068847656,0.025390625,4
-0.984130859,0.068847656,0.025390625,4
-0.984130859,0.068847656,0.025390625,4
-0.937255859,-0.048828125,-0.568603516,1
-0.937255859,-0.048828125,-0.568603516,1
-0.937255859,-0.048828125,-0.568603516,1
-0.860351563,0.03125,-0.460693359,1
-0.860351563,0.03125,-0.460693359,1
-0.860351563,0.03125,-0.460693359,1
-0.971191406,0.113037109,-0.091308594,1
-0.971191406,0.113037109,-0.091308594,1
-0.971191406,0.113037109,-0.091308594,1
-0.971191406,0.113037109,-0.091308594,1
-0.981933594,0.099609375,-0.154785156,1
0,0,0,0
-0.986816406,-0.010009766,-0.127685547,1
-0.986816406,-0.010009766,-0.127685547,1
-0.986816406,-0.010009766,-0.127685547,1
-0.986816406,-0.010009766,-0.127685547,1
-0.969726563,-0.005615234,-0.149902344,1
-0.969726563,-0.005615234,-0.149902344,1
-0.969726563,-0.005615234,-0.149902344,1
-0.991699219,-0.047607422,-0.211425781,1
-0.991699219,-0.047607422,-0.211425781,1
-0.991699219,-0.047607422,-0.211425781,4
-0.731445313,-0.064453125,-0.608886719,4
-0.731445313,-0.064453125,-0.608886719,4
-0.731445313,-0.064453125,-0.608886719,4
-0.731445313,-0.064453125,-0.608886719,4
-0.997314453,-0.024414063,0.023925781,4
-0.997314453,-0.024414063,0.023925781,4
-0.997314453,-0.024414063,0.023925781,4
-0.978027344,0.000488281,0.108642578,4
-0.978027344,0.000488281,0.108642578,4
-0.978027344,0.000488281,0.108642578,4
-1.070068359,-0.023681641,-0.470214844,4
-1.070068359,-0.023681641,-0.470214844,4
-1.070068359,-0.023681641,-0.470214844,4
-1.070068359,-0.023681641,-0.470214844,4
-0.946777344,-0.026855469,-0.249511719,1
-0.946777344,-0.026855469,-0.249511719,1
-0.946777344,-0.026855469,-0.249511719,1
-0.917480469,-0.055175781,-0.342529297,1
-0.917480469,-0.055175781,-0.342529297,1
-0.917480469,-0.055175781,-0.342529297,1
-0.792480469,-0.055419922,-0.523925781,1
-0.792480469,-0.055419922,-0.523925781,1
-0.792480469,-0.055419922,-0.523925781,1
-0.792480469,-0.055419922,-0.523925781,1
-0.979736328,-0.011962891,0.047363281,1
-0.979736328,-0.011962891,0.047363281,1
-0.979736328,-0.011962891,0.047363281,1
-0.979248047,-0.000976563,0.046386719,1
-0.979248047,-0.000976563,0.046386719,1
-0.979248047,-0.000976563,0.046386719,1
-0.99609375,-0.122558594,-0.635742188,1
-0.99609375,-0.122558594,-0.635742188,1
-0.99609375,-0.122558594,-0.635742188,1
-0.957275391,-0.020263672,-0.215332031,1
-0.957275391,-0.020263672,-0.215332031,1
-0.957275391,-0.020263672,-0.215332031,1
-0.957275391,-0.020263672,-0.215332031,1
-0.951416016,-0.041992188,-0.243896484,1
-0.951416016,-0.041992188,-0.243896484,1
-0.951416016,-0.041992188,-0.243896484,1
-0.826904297,-0.0625,-0.527099609,4
-0.826904297,-0.0625,-0.527099609,4
-0.826904297,-0.0625,-0.527099609,4
-1.16015625,-0.179931641,-0.505371094,4
-1.16015625,-0.179931641,-0.505371094,4
-1.16015625,-0.179931641,-0.505371094,4
-1.16015625,-0.179931641,-0.505371094,4
-0.98046875,-0.005859375,0.108154297,4
-0.98046875,-0.005859375,0.108154297,4
-0.98046875,-0.005859375,0.108154297,4
-0.983154297,-0.012939453,0.098388672,4
-0.983154297,-0.012939453,0.098388672,4
-0.983154297,-0.012939453,0.098388672,4
-0.946533203,-0.100097656,-0.315185547,4
-0.946533203,-0.100097656,-0.315185547,4
-0.946533203,-0.100097656,-0.315185547,4
-0.872070313,-0.060302734,-0.433349609,1
-0.872070313,-0.060302734,-0.433349609,1
-0.872070313,-0.060302734,-0.433349609,1
-0.872070313,-0.060302734,-0.433349609,1
-0.959472656,-0.013671875,-0.262695313,1
-0.959472656,-0.013671875,-0.262695313,1
-0.959472656,-0.013671875,-0.262695313,1
-0.956298828,-0.037353516,-0.265380859,1
-0.956298828,-0.037353516,-0.265380859,1
-0.956298828,-0.037353516,-0.265380859,1
-0.823242188,-0.061279297,-0.578857422,4
-0.823242188,-0.061279297,-0.578857422,4
-0.823242188,-0.061279297,-0.578857422,4
-0.823242188,-0.061279297,-0.578857422,4
-0.991210938,-0.044433594,-0.174072266,4
-0.991210938,-0.044433594,-0.174072266,4
-0.991210938,-0.044433594,-0.174072266,4
-0.987548828,0.003417969,0.052734375,4
-0.987548828,0.003417969,0.052734375,4
-0.987548828,0.003417969,0.052734375,4
-0.983886719,-0.010009766,0.069091797,4
-0.983886719,-0.010009766,0.069091797,4
-0.983886719,-0.010009766,0.069091797,4
-0.983886719,-0.010009766,0.069091797,4
-0.984619141,-0.00390625,-0.082763672,4
-0.984619141,-0.00390625,-0.082763672,4
-0.984619141,-0.00390625,-0.082763672,4
-0.799804688,0.115966797,-0.543212891,1
-0.799804688,0.115966797,-0.543212891,1
-0.799804688,0.115966797,-0.543212891,1
-0.962890625,0.004394531,-0.226074219,1
-0.962890625,0.004394531,-0.226074219,1
-0.962890625,0.004394531,-0.226074219,1
-0.962890625,0.004394531,-0.226074219,1
-0.968505859,-0.01953125,-0.220947266,1
-0.968505859,-0.01953125,-0.220947266,1
-0.968505859,-0.01953125,-0.220947266,1
-0.772460938,-0.054199219,-0.454833984,4
-0.772460938,-0.054199219,-0.454833984,4
-0.772460938,-0.054199219,-0.454833984,4
-0.804199219,-0.134277344,-0.524658203,4
-0.804199219,-0.134277344,-0.524658203,4
-0.804199219,-0.134277344,-0.524658203,4
-0.804199219,-0.134277344,-0.524658203,4
-0.991455078,-0.011474609,0.007568359,4
-0.991455078,-0.011474609,0.007568359,4
-0.991455078,-0.011474609,0.007568359,4
-0.987304688,0.003173828,0.044677734,4
-0.987304688,0.003173828,0.044677734,4
-0.987304688,0.003173828,0.044677734,4
-0.975585938,-0.018798828,-0.035644531,4
-0.975585938,-0.018798828,-0.035644531,4
-0.975585938,-0.018798828,-0.035644531,4
-0.778808594,-0.059326172,-0.550292969,1
-0.778808594,-0.059326172,-0.550292969,1
-0.778808594,-0.059326172,-0.550292969,1
-0.959960938,0.000976563,-0.260009766,1
-0.959960938,0.000976563,-0.260009766,1
-0.959960938,0.000976563,-0.260009766,1
-0.959960938,0.000976563,-0.260009766,1
-0.959716797,-0.012695313,-0.256591797,1
-0.959716797,-0.012695313,-0.256591797,1
-0.959716797,-0.012695313,-0.256591797,1
-0.943359375,-0.016113281,-0.356201172,1
-0.943359375,-0.016113281,-0.356201172,1
-0.943359375,-0.016113281,-0.356201172,1
-0.753417969,-0.11328125,-0.549072266,4
-0.753417969,-0.11328125,-0.549072266,4
-0.753417969,-0.11328125,-0.549072266,4
-0.753417969,-0.11328125,-0.549072266,4
-0.954589844,-0.017822266,-0.126220703,4
-0.954589844,-0.017822266,-0.126220703,4
-0.954589844,-0.017822266,-0.126220703,4
-0.987792969,0.021728516,0.033447266,4
-0.987792969,0.021728516,0.033447266,4
-0.987792969,0.021728516,0.033447266,4
-0.988037109,0.024169922,-0.010009766,4
-0.988037109,0.024169922,-0.010009766,4
-0.988037109,0.024169922,-0.010009766,4
-0.971923828,-0.185302734,-0.473144531,4
-0.971923828,-0.185302734,-0.473144531,4
-0.971923828,-0.185302734,-0.473144531,4
-0.971923828,-0.185302734,-0.473144531,4
-0.83203125,-0.053710938,-0.393798828,1
-0.83203125,-0.053710938,-0.393798828,1
-0.83203125,-0.053710938,-0.393798828,1
-0.970947266,-0.041015625,-0.227050781,1
-0.970947266,-0.041015625,-0.227050781,1
-0.970947266,-0.041015625,-0.227050781,1
-0.957275391,-0.029052734,-0.235351563,1
-0.957275391,-0.029052734,-0.235351563,1
-0.957275391,-0.029052734,-0.235351563,1
-0.957275391,-0.029052734,-0.235351563,1
-0.821289063,-0.104736328,-0.56640625,4
-0.821289063,-0.104736328,-0.56640625,4
-0.821289063,-0.104736328,-0.56640625,4
-0.931152344,-0.145507813,-0.445556641,4
-0.931152344,-0.145507813,-0.445556641,4
-0.931152344,-0.145507813,-0.445556641,4
-0.986083984,0.008544922,0.011230469,4
-0.986083984,0.008544922,0.011230469,4
-0.986083984,0.008544922,0.011230469,4
-0.986083984,0.008544922,0.011230469,4
-0.983886719,0.020507813,-0.003662109,4
-0.983886719,0.020507813,-0.003662109,4
-0.983886719,0.020507813,-0.003662109,4
-0.973876953,-0.102783203,-0.246582031,4
-0.973876953,-0.102783203,-0.246582031,4
-0.973876953,-0.102783203,-0.246582031,4
-0.805419922,-0.087158203,-0.647705078,1
-0.805419922,-0.087158203,-0.647705078,1
-0.805419922,-0.087158203,-0.647705078,1
-0.946289063,-0.032226563,-0.258056641,1
-0.946289063,-0.032226563,-0.258056641,1
-0.946289063,-0.032226563,-0.258056641,1
-0.946289063,-0.032226563,-0.258056641,1
-0.951660156,-0.023925781,-0.267333984,1
-0.951660156,-0.023925781,-0.267333984,1
-0.951660156,-0.023925781,-0.267333984,1
-0.953369141,-0.200927734,-0.545410156,1
-0.953369141,-0.200927734,-0.545410156,1
-0.953369141,-0.200927734,-0.545410156,1
-0.985351563,0.004150391,-0.042236328,1
-0.985351563,0.004150391,-0.042236328,1
-0.985351563,0.004150391,-0.042236328,1
-0.985351563,0.004150391,-0.042236328,1
-0.988525391,0.030517578,-0.051513672,1
-0.988525391,0.030517578,-0.051513672,1
-0.988525391,0.030517578,-0.051513672,1
0,0,0,0
-0.965576172,0.002685547,-0.2265625,1
-0.965576172,0.002685547,-0.2265625,1
-0.965576172,0.002685547,-0.2265625,1
-0.953369141,0.000244141,-0.248535156,1
-0.953369141,0.000244141,-0.248535156,1
-0.953369141,0.000244141,-0.248535156,1
-0.953369141,0.000244141,-0.248535156,1
-0.832519531,0.006103516,-0.513183594,4
-0.832519531,0.006103516,-0.513183594,4
-0.832519531,0.006103516,-0.513183594,4
-0.689453125,-0.141601563,-0.605957031,4
-0.689453125,-0.141601563,-0.605957031,4
-0.689453125,-0.141601563,-0.605957031,4
-0.974365234,0,-0.069335938,4
-0.974365234,0,-0.069335938,4
-0.974365234,0,-0.069335938,4
-0.974365234,0,-0.069335938,4
-0.984375,0.001953125,-0.037597656,4
-0.984375,0.001953125,-0.037597656,4
-0.984375,0.001953125,-0.037597656,4
-0.974609375,-0.033935547,-0.11328125,4
-0.974609375,-0.033935547,-0.11328125,4
-0.974609375,-0.033935547,-0.11328125,4
-0.747802734,-0.203369141,-0.694824219,1
-0.747802734,-0.203369141,-0.694824219,1
-0.747802734,-0.203369141,-0.694824219,1
-0.747802734,-0.203369141,-0.694824219,1
-0.720703125,-0.047851563,-0.563232422,1
-0.720703125,-0.047851563,-0.563232422,1
-0.720703125,-0.047851563,-0.563232422,1
-0.944580078,-0.045166016,-0.257568359,1
-0.944580078,-0.045166016,-0.257568359,1
-0.944580078,-0.045166016,-0.257568359,1
-0.956054688,-0.034912109,-0.270751953,1
-0.956054688,-0.034912109,-0.270751953,1
-0.956054688,-0.034912109,-0.270751953,1
-0.956054688,-0.034912109,-0.270751953,1
-0.907226563,-0.061767578,-0.401855469,1
-0.907226563,-0.061767578,-0.401855469,1
-0.907226563,-0.061767578,-0.401855469,1
-0.744873047,-0.032714844,-0.684570313,4
-0.744873047,-0.032714844,-0.684570313,4
-0.744873047,-0.032714844,-0.684570313,4
-0.768554688,-0.195800781,-0.721191406,4
-0.768554688,-0.195800781,-0.721191406,4
-0.768554688,-0.195800781,-0.721191406,4
-0.768554688,-0.195800781,-0.721191406,4
-0.992675781,-0.039794922,-0.051025391,4
-0.992675781,-0.039794922,-0.051025391,4
-0.992675781,-0.039794922,-0.051025391,4
-0.988037109,0.00390625,0.020507813,4
-0.988037109,0.00390625,0.020507813,4
-0.988037109,0.00390625,0.020507813,4
-0.983642578,-0.011474609,-0.026611328,4
-0.983642578,-0.011474609,-0.026611328,4
-0.983642578,-0.011474609,-0.026611328,4
-0.983642578,-0.011474609,-0.026611328,4
-0.944580078,-0.054199219,-0.233398438,4
-0.944580078,-0.054199219,-0.233398438,4
-0.944580078,-0.054199219,-0.233398438,4
-0.673828125,-0.125,-0.727783203,1
-0.673828125,-0.125,-0.727783203,1
-0.673828125,-0.125,-0.727783203,1
-0.827636719,0.003662109,-0.405273438,1
-0.827636719,0.003662109,-0.405273438,1
-0.827636719,0.003662109,-0.405273438,1
-0.827636719,0.003662109,-0.405273438,1
-0.948486328,-0.031738281,-0.321289063,1
-0.948486328,-0.031738281,-0.321289063,1
-0.948486328,-0.031738281,-0.321289063,1
-0.929931641,-0.031738281,-0.315673828,1
-0.929931641,-0.031738281,-0.315673828,1
-0.929931641,-0.031738281,-0.315673828,1
-0.919677734,-0.047363281,-0.407226563,1
-0.919677734,-0.047363281,-0.407226563,1
-0.919677734,-0.047363281,-0.407226563,1
-0.919677734,-0.047363281,-0.407226563,1
-0.679199219,-0.066650391,-0.711425781,4
-0.679199219,-0.066650391,-0.711425781,4
-0.679199219,-0.066650391,-0.711425781,4
-0.833496094,-0.225341797,-0.663818359,4
-0.833496094,-0.225341797,-0.663818359,4
-0.833496094,-0.225341797,-0.663818359,4
-0.989501953,-0.027587891,-0.034179688,4
-0.989501953,-0.027587891,-0.034179688,4
-0.989501953,-0.027587891,-0.034179688,4
-0.991699219,-0.003662109,-0.057617188,4
-0.991699219,-0.003662109,-0.057617188,4
-0.991699219,-0.003662109,-0.057617188,4
-0.991699219,-0.003662109,-0.057617188,4
-0.983154297,-0.022705078,-0.104492188,4
-0.983154297,-0.022705078,-0.104492188,4
-0.983154297,-0.022705078,-0.104492188,4
-0.823486328,-0.176269531,-0.580566406,1
-0.823486328,-0.176269531,-0.580566406,1
-0.823486328,-0.176269531,-0.580566406,1
-0.667236328,-0.003173828,-0.685546875,1
-0.667236328,-0.003173828,-0.685546875,1
-0.667236328,-0.003173828,-0.685546875,1
-0.667236328,-0.003173828,-0.685546875,1
-0.962890625,-0.029052734,-0.290039063,1
-0.962890625,-0.029052734,-0.290039063,1
-0.962890625,-0.029052734,-0.290039063,1
-0.945800781,-0.037353516,-0.303710938,1
-0.945800781,-0.037353516,-0.303710938,1
-0.945800781,-0.037353516,-0.303710938,1
-0.828857422,-0.070800781,-0.474853516,4
-0.828857422,-0.070800781,-0.474853516,4
-0.828857422,-0.070800781,-0.474853516,4
-0.650878906,-0.076416016,-0.730957031,4
-0.650878906,-0.076416016,-0.730957031,4
-0.650878906,-0.076416016,-0.730957031,4
-0.650878906,-0.076416016,-0.730957031,4
-0.903808594,-0.109619141,-0.310302734,4
-0.903808594,-0.109619141,-0.310302734,4
-0.903808594,-0.109619141,-0.310302734,4
-0.989990234,-0.009277344,-0.025390625,4
-0.989990234,-0.009277344,-0.025390625,4
-0.989990234,-0.009277344,-0.025390625,4
-1.003173828,-0.003662109,-0.045166016,4
-1.003173828,-0.003662109,-0.045166016,4
-1.003173828,-0.003662109,-0.045166016,4
-1.003173828,-0.003662109,-0.045166016,4
-0.984375,-0.038330078,-0.140136719,4
-0.984375,-0.038330078,-0.140136719,4
-0.984375,-0.038330078,-0.140136719,4
-0.853515625,-0.149414063,-0.542236328,1
-0.853515625,-0.149414063,-0.542236328,1
-0.853515625,-0.149414063,-0.542236328,1
-0.670410156,-0.069580078,-0.784912109,1
-0.670410156,-0.069580078,-0.784912109,1
-0.670410156,-0.069580078,-0.784912109,1
-0.670410156,-0.069580078,-0.784912109,1
-0.899414063,-0.048583984,-0.354003906,1
-0.899414063,-0.048583984,-0.354003906,1
-0.899414063,-0.048583984,-0.354003906,1
-0.934570313,-0.045410156,-0.322265625,1
-0.934570313,-0.045410156,-0.322265625,1
-0.934570313,-0.045410156,-0.322265625,1
-0.915283203,-0.023193359,-0.377685547,1
-0.915283203,-0.023193359,-0.377685547,1
-0.915283203,-0.023193359,-0.377685547,1
-0.690673828,-0.096923828,-0.695556641,4
-0.690673828,-0.096923828,-0.695556641,4
-0.690673828,-0.096923828,-0.695556641,4
-0.690673828,-0.096923828,-0.695556641,4
-0.737060547,-0.217773438,-0.640625,4
-0.737060547,-0.217773438,-0.640625,4
-0.737060547,-0.217773438,-0.640625,4
-0.977783203,-0.037109375,-0.097900391,4
-0.977783203,-0.037109375,-0.097900391,4
-0.977783203,-0.037109375,-0.097900391,4
-0.983154297,-0.033203125,-0.118408203,4
-0.983154297,-0.033203125,-0.118408203,4
-0.983154297,-0.033203125,-0.118408203,4
-0.983154297,-0.033203125,-0.118408203,4
-0.976806641,-0.042724609,-0.157714844,4
-0.976806641,-0.042724609,-0.157714844,4
-0.976806641,-0.042724609,-0.157714844,4
-0.909667969,-0.171875,-0.385498047,4
-0.909667969,-0.171875,-0.385498047,4
-0.909667969,-0.171875,-0.385498047,4
-0.673583984,-0.151855469,-0.780761719,1
-0.673583984,-0.151855469,-0.780761719,1
-0.673583984,-0.151855469,-0.780761719,1
-0.910400391,-0.059082031,-0.400634766,1
-0.910400391,-0.059082031,-0.400634766,1
-0.910400391,-0.059082031,-0.400634766,1
-0.910400391,-0.059082031,-0.400634766,1
-0.934814453,-0.047363281,-0.321533203,1
-0.934814453,-0.047363281,-0.321533203,1
-0.934814453,-0.047363281,-0.321533203,1
-0.894775391,-0.045898438,-0.391845703,4
-0.894775391,-0.045898438,-0.391845703,4
-0.894775391,-0.045898438,-0.391845703,4
-0.676025391,-0.100341797,-0.794189453,4
-0.676025391,-0.100341797,-0.794189453,4
-0.676025391,-0.100341797,-0.794189453,4
-0.676025391,-0.100341797,-0.794189453,4
-0.829589844,-0.153808594,-0.621337891,4
-0.829589844,-0.153808594,-0.621337891,4
-0.829589844,-0.153808594,-0.621337891,4
-0.98046875,-0.039306641,-0.100097656,4
-0.98046875,-0.039306641,-0.100097656,4
-0.98046875,-0.039306641,-0.100097656,4
-0.987304688,-0.023681641,-0.113037109,4
-0.987304688,-0.023681641,-0.113037109,4
-0.987304688,-0.023681641,-0.113037109,4
-0.987304688,-0.023681641,-0.113037109,4
-0.967773438,-0.091552734,-0.241455078,4
-0.967773438,-0.091552734,-0.241455078,4
-0.967773438,-0.091552734,-0.241455078,4
-0.592529297,-0.292236328,-0.767822266,1
-0.592529297,-0.292236328,-0.767822266,1
-0.592529297,-0.292236328,-0.767822266,1
-0.738037109,-0.060302734,-0.605712891,1
-0.738037109,-0.060302734,-0.605712891,1
-0.738037109,-0.060302734,-0.605712891,1
-0.953369141,-0.043945313,-0.325439453,1
-0.953369141,-0.043945313,-0.325439453,1
-0.953369141,-0.043945313,-0.325439453,1
-0.953369141,-0.043945313,-0.325439453,1
-0.926025391,-0.051757813,-0.340087891,1
-0.926025391,-0.051757813,-0.340087891,1
-0.926025391,-0.051757813,-0.340087891,1
-0.843261719,-0.038330078,-0.560302734,4
-0.843261719,-0.038330078,-0.560302734,4
-0.843261719,-0.038330078,-0.560302734,4
-0.748779297,-0.227783203,-0.777832031,4
-0.748779297,-0.227783203,-0.777832031,4
-0.748779297,-0.227783203,-0.777832031,4
-0.748779297,-0.227783203,-0.777832031,4
-0.989746094,-0.075439453,-0.121826172,4
-0.989746094,-0.075439453,-0.121826172,4
-0.989746094,-0.075439453,-0.121826172,4
-0.986083984,-0.042480469,-0.104492188,4
-0.986083984,-0.042480469,-0.104492188,4
-0.986083984,-0.042480469,-0.104492188,4
-0.975830078,-0.059082031,-0.140625,4
-0.975830078,-0.059082031,-0.140625,4
-0.975830078,-0.059082031,-0.140625,4
-0.821777344,-0.198242188,-0.566894531,1
-0.821777344,-0.198242188,-0.566894531,1
-0.821777344,-0.198242188,-0.566894531,1
-0.821777344,-0.198242188,-0.566894531,1
-0.765136719,-0.078369141,-0.622802734,1
-0.765136719,-0.078369141,-0.622802734,1
-0.765136719,-0.078369141,-0.622802734,1
-0.952148438,-0.052246094,-0.295654297,1
-0.952148438,-0.052246094,-0.295654297,1
-0.952148438,-0.052246094,-0.295654297,1
-0.952636719,-0.044189453,-0.303955078,1
-0.952636719,-0.044189453,-0.303955078,1
-0.952636719,-0.044189453,-0.303955078,1
-0.952636719,-0.044189453,-0.303955078,1
-0.92578125,-0.055419922,-0.351318359,1
-0.92578125,-0.055419922,-0.351318359,1
-0.92578125,-0.055419922,-0.351318359,1
-0.710449219,-0.064941406,-0.718017578,4
-0.710449219,-0.064941406,-0.718017578,4
-0.710449219,-0.064941406,-0.718017578,4
-0.711914063,-0.262451172,-0.748779297,4
-0.711914063,-0.262451172,-0.748779297,4
-0.711914063,-0.262451172,-0.748779297,4
-0.977294922,-0.062744141,-0.153564453,4
-0.977294922,-0.062744141,-0.153564453,4
-0.977294922,-0.062744141,-0.153564453,4
-0.977294922,-0.062744141,-0.153564453,4
-0.98046875,-0.057128906,-0.16015625,4
-0.98046875,-0.057128906,-0.16015625,4
-0.98046875,-0.057128906,-0.16015625,4
-0.962890625,-0.084716797,-0.184326172,4
-0.962890625,-0.084716797,-0.184326172,4
-0.962890625,-0.084716797,-0.184326172,4
-0.762695313,-0.287109375,-0.678710938,1
-0.762695313,-0.287109375,-0.678710938,1
-0.762695313,-0.287109375,-0.678710938,1
-0.762695313,-0.287109375,-0.678710938,1
-0.749023438,-0.05078125,-0.670654297,1
-0.749023438,-0.05078125,-0.670654297,1
-0.749023438,-0.05078125,-0.670654297,1
-0.945800781,-0.053710938,-0.315185547,1
-0.945800781,-0.053710938,-0.315185547,1
-0.945800781,-0.053710938,-0.315185547,1
-0.938720703,-0.045166016,-0.314453125,1
-0.938720703,-0.045166016,-0.314453125,1
-0.938720703,-0.045166016,-0.314453125,1
-0.938720703,-0.045166016,-0.314453125,1
-0.907958984,-0.070556641,-0.367431641,1
-0.907958984,-0.070556641,-0.367431641,1
-0.907958984,-0.070556641,-0.367431641,1
-0.603759766,-0.055908203,-0.757324219,4
-0.603759766,-0.055908203,-0.757324219,4
-0.603759766,-0.055908203,-0.757324219,4
-0.872314453,-0.263183594,-0.680419922,4
-0.872314453,-0.263183594,-0.680419922,4
-0.872314453,-0.263183594,-0.680419922,4
-0.872314453,-0.263183594,-0.680419922,4
-0.963623047,-0.067871094,-0.215332031,4
-0.963623047,-0.067871094,-0.215332031,4
-0.963623047,-0.067871094,-0.215332031,4
-0.972412109,-0.073730469,-0.231689453,4
-0.972412109,-0.073730469,-0.231689453,4
-0.972412109,-0.073730469,-0.231689453,4
-0.928710938,-0.166992188,-0.39453125,4
-0.928710938,-0.166992188,-0.39453125,4
-0.928710938,-0.166992188,-0.39453125,4
-0.928710938,-0.166992188,-0.39453125,4
-0.615966797,-0.214111328,-0.7890625,1
-0.615966797,-0.214111328,-0.7890625,1
-0.615966797,-0.214111328,-0.7890625,1
-0.911621094,-0.064453125,-0.357177734,1
-0.911621094,-0.064453125,-0.357177734,1
-0.911621094,-0.064453125,-0.357177734,1
-0.951416016,-0.042480469,-0.295166016,1
-0.951416016,-0.042480469,-0.295166016,1
-0.951416016,-0.042480469,-0.295166016,1
-0.951416016,-0.042480469,-0.295166016,1
-0.948242188,-0.034667969,-0.286376953,1
-0.948242188,-0.034667969,-0.286376953,1
0,0,0,0
-0.988769531,0.15625,0.009521484,1
-0.988769531,0.15625,0.009521484,1
-0.988769531,0.15625,0.009521484,1
-0.987060547,0.123535156,-0.046630859,1
-0.987060547,0.123535156,-0.046630859,1
-0.987060547,0.123535156,-0.046630859,1
-0.987060547,0.123535156,-0.046630859,1
-0.848632813,-0.025146484,-0.478759766,4
-0.848632813,-0.025146484,-0.478759766,4
-0.848632813,-0.025146484,-0.478759766,4
-0.56640625,-0.055419922,-0.789794922,4
-0.56640625,-0.055419922,-0.789794922,4
-0.56640625,-0.055419922,-0.789794922,4
-0.860107422,-0.376708984,-0.255615234,4
-0.860107422,-0.376708984,-0.255615234,4
-0.860107422,-0.376708984,-0.255615234,4
-0.860107422,-0.376708984,-0.255615234,4
-0.899414063,-0.202392578,0.370605469,3
-0.899414063,-0.202392578,0.370605469,3
-0.899414063,-0.202392578,0.370605469,3
-0.07421875,-0.44140625,0.903320313,3
-0.07421875,-0.44140625,0.903320313,3
-0.07421875,-0.44140625,0.903320313,3
-0.117919922,-0.145751953,0.966308594,3
-0.117919922,-0.145751953,0.966308594,3
-0.117919922,-0.145751953,0.966308594,3
-0.106445313,-0.054443359,0.982421875,3
-0.106445313,-0.054443359,0.982421875,3
-0.106445313,-0.054443359,0.982421875,3
-0.106445313,-0.054443359,0.982421875,3
-0.068847656,-0.077880859,0.981933594,3
-0.068847656,-0.077880859,0.981933594,3
-0.068847656,-0.077880859,0.981933594,3
-0.483398438,-0.35546875,0.773681641,4
-0.483398438,-0.35546875,0.773681641,4
-0.483398438,-0.35546875,0.773681641,4
-0.799804688,-0.231201172,0.459472656,4
-0.799804688,-0.231201172,0.459472656,4
-0.799804688,-0.231201172,0.459472656,4
-1.008056641,-0.327880859,0.030029297,4
-1.008056641,-0.327880859,0.030029297,4
-1.008056641,-0.327880859,0.030029297,4
-1.008056641,-0.327880859,0.030029297,4
-0.877685547,-0.014892578,-0.668212891,1
-0.877685547,-0.014892578,-0.668212891,1
-0.877685547,-0.014892578,-0.668212891,1
-0.781005859,0.001464844,-0.642578125,1
-0.781005859,0.001464844,-0.642578125,1
-0.781005859,0.001464844,-0.642578125,1
-1.015625,0.015136719,-0.163085938,1
-1.015625,0.015136719,-0.163085938,1
-1.015625,0.015136719,-0.163085938,1
-1.015625,0.015136719,-0.163085938,1
-0.961669922,0.146484375,-0.219482422,1
-0.961669922,0.146484375,-0.219482422,1
-0.961669922,0.146484375,-0.219482422,1
-0.901611328,0.036621094,-0.354980469,1
-0.901611328,0.036621094,-0.354980469,1
-0.901611328,0.036621094,-0.354980469,1
-0.619384766,-0.120361328,-0.764160156,4
-0.619384766,-0.120361328,-0.764160156,4
-0.619384766,-0.120361328,-0.764160156,4
-0.619384766,-0.120361328,-0.764160156,4
-0.940429688,-0.372070313,-0.153808594,4
-0.940429688,-0.372070313,-0.153808594,4
-0.940429688,-0.372070313,-0.153808594,4
-0.87890625,-0.185791016,0.505615234,3
-0.87890625,-0.185791016,0.505615234,3
-0.87890625,-0.185791016,0.505615234,3
-0.171142578,0.144775391,0.975341797,3
-0.171142578,0.144775391,0.975341797,3
-0.171142578,0.144775391,0.975341797,3
-0.171142578,0.144775391,0.975341797,3
-0.055908203,-0.038574219,0.991455078,3
-0.055908203,-0.038574219,0.991455078,3
-0.055908203,-0.038574219,0.991455078,3
-0.052490234,-0.046142578,0.9921875,3
-0.052490234,-0.046142578,0.9921875,3
-0.052490234,-0.046142578,0.9921875,3
-0.357421875,-0.224853516,0.903808594,4
-0.357421875,-0.224853516,0.903808594,4
-0.357421875,-0.224853516,0.903808594,4
-0.8359375,-0.173339844,0.520263672,4
-0.8359375,-0.173339844,0.520263672,4
-0.8359375,-0.173339844,0.520263672,4
-0.8359375,-0.173339844,0.520263672,4
-0.998535156,-0.231689453,0.019775391,4
-0.998535156,-0.231689453,0.019775391,4
-0.998535156,-0.231689453,0.019775391,4
-0.854736328,-0.161865234,-0.234619141,4
-0.854736328,-0.161865234,-0.234619141,4
-0.854736328,-0.161865234,-0.234619141,4
-0.580810547,0.074707031,-0.865722656,4
-0.580810547,0.074707031,-0.865722656,4
-0.580810547,0.074707031,-0.865722656,4
-0.878662109,-0.004638672,-0.517333984,1
-0.878662109,-0.004638672,-0.517333984,1
-0.878662109,-0.004638672,-0.517333984,1
-0.878662109,-0.004638672,-0.517333984,1
-0.971435547,0.002685547,-0.269775391,1
-0.971435547,0.002685547,-0.269775391,1
-0.971435547,0.002685547,-0.269775391,1
-1.010498047,0.071044922,-0.262695313,1
-1.010498047,0.071044922,-0.262695313,1
-1.010498047,0.071044922,-0.262695313,1
-0.794677734,-0.019287109,-0.565429688,4
-0.794677734,-0.019287109,-0.565429688,4
-0.794677734,-0.019287109,-0.565429688,4
-0.794677734,-0.019287109,-0.565429688,4
-0.622802734,-0.085205078,-0.803222656,4
-0.622802734,-0.085205078,-0.803222656,4
-0.622802734,-0.085205078,-0.803222656,4
-0.904785156,-0.350585938,-0.266845703,4
-0.904785156,-0.350585938,-0.266845703,4
-0.904785156,-0.350585938,-0.266845703,4
-0.892822266,-0.178222656,0.475585938,3
-0.892822266,-0.178222656,0.475585938,3
-0.892822266,-0.178222656,0.475585938,3
-0.892822266,-0.178222656,0.475585938,3
-0.051269531,-0.009277344,1.016113281,3
-0.051269531,-0.009277344,1.016113281,3
-0.051269531,-0.009277344,1.016113281,3
-0.053466797,-0.072265625,0.973388672,3
-0.053466797,-0.072265625,0.973388672,3
-0.053466797,-0.072265625,0.973388672,3
-0.009765625,-0.078125,0.985595703,3
-0.009765625,-0.078125,0.985595703,3
-0.009765625,-0.078125,0.985595703,3
-0.009765625,-0.078125,0.985595703,3
-0.557128906,-0.255615234,0.736816406,4
-0.557128906,-0.255615234,0.736816406,4
-0.557128906,-0.255615234,0.736816406,4
-0.872558594,-0.265136719,0.425292969,4
-0.872558594,-0.265136719,0.425292969,4
-0.872558594,-0.265136719,0.425292969,4
-0.993896484,-0.151367188,0.220214844,4
-0.993896484,-0.151367188,0.220214844,4
-0.993896484,-0.151367188,0.220214844,4
-0.993896484,-0.151367188,0.220214844,4
-0.895263672,-0.237548828,-0.260009766,4
-0.895263672,-0.237548828,-0.260009766,4
-0.895263672,-0.237548828,-0.260009766,4
-0.773681641,-0.068359375,-0.666259766,1
-0.773681641,-0.068359375,-0.666259766,1
-0.773681641,-0.068359375,-0.666259766,1
-0.918945313,0.061767578,-0.246337891,1
-0.918945313,0.061767578,-0.246337891,1
-0.918945313,0.061767578,-0.246337891,1
-0.918945313,0.061767578,-0.246337891,1
-1.003417969,0.049316406,-0.220947266,1
-1.003417969,0.049316406,-0.220947266,1
-1.003417969,0.049316406,-0.220947266,1
-0.883056641,0.017822266,-0.310546875,4
-0.883056641,0.017822266,-0.310546875,4
-0.883056641,0.017822266,-0.310546875,4
-0.702636719,-0.041259766,-0.676269531,4
-0.702636719,-0.041259766,-0.676269531,4
-0.702636719,-0.041259766,-0.676269531,4
-0.702636719,-0.041259766,-0.676269531,4
-0.619140625,-0.102783203,-0.789306641,4
-0.619140625,-0.102783203,-0.789306641,4
-0.619140625,-0.102783203,-0.789306641,4
-0.923583984,-0.300292969,0.007080078,3
-0.923583984,-0.300292969,0.007080078,3
-0.923583984,-0.300292969,0.007080078,3
-0.73046875,-0.135498047,0.579345703,3
-0.73046875,-0.135498047,0.579345703,3
-0.73046875,-0.135498047,0.579345703,3
-0.076904297,-0.118164063,1.010742188,3
-0.076904297,-0.118164063,1.010742188,3
-0.076904297,-0.118164063,1.010742188,3
-0.076904297,-0.118164063,1.010742188,3
-0.069824219,-0.133544922,0.980224609,3
-0.069824219,-0.133544922,0.980224609,3
-0.069824219,-0.133544922,0.980224609,3
-0.12109375,-0.109619141,1.001220703,3
-0.12109375,-0.109619141,1.001220703,3
-0.12109375,-0.109619141,1.001220703,3
-0.502685547,-0.193115234,0.798095703,4
-0.502685547,-0.193115234,0.798095703,4
-0.502685547,-0.193115234,0.798095703,4
-0.502685547,-0.193115234,0.798095703,4
-0.843994141,-0.145263672,0.484375,4
-0.843994141,-0.145263672,0.484375,4
-0.843994141,-0.145263672,0.484375,4
-0.953613281,-0.234375,0.134521484,4
-0.953613281,-0.234375,0.134521484,4
-0.953613281,-0.234375,0.134521484,4
-0.870117188,-0.060791016,-0.369873047,4
-0.870117188,-0.060791016,-0.369873047,4
-0.870117188,-0.060791016,-0.369873047,4
-0.745849609,0.065429688,-0.746826172,1
-0.745849609,0.065429688,-0.746826172,1
-0.745849609,0.065429688,-0.746826172,1
-0.745849609,0.065429688,-0.746826172,1
-0.97265625,0.053710938,-0.214599609,1
-0.97265625,0.053710938,-0.214599609,1
-0.97265625,0.053710938,-0.214599609,1
-0.962158203,0.010253906,-0.189697266,1
-0.962158203,0.010253906,-0.189697266,1
-0.962158203,0.010253906,-0.189697266,1
-0.890136719,-0.045166016,-0.416259766,4
-0.890136719,-0.045166016,-0.416259766,4
-0.890136719,-0.045166016,-0.416259766,4
-0.784179688,-0.090332031,-0.623046875,4
-0.784179688,-0.090332031,-0.623046875,4
-0.784179688,-0.090332031,-0.623046875,4
-0.784179688,-0.090332031,-0.623046875,4
-1.031982422,-0.376953125,-0.02734375,3
-1.031982422,-0.376953125,-0.02734375,3
-1.031982422,-0.376953125,-0.02734375,3
-0.254150391,-0.325439453,0.934082031,3
-0.254150391,-0.325439453,0.934082031,3
-0.254150391,-0.325439453,0.934082031,3
-0.091308594,-0.1875,0.958251953,3
-0.091308594,-0.1875,0.958251953,3
-0.091308594,-0.1875,0.958251953,3
-0.091308594,-0.1875,0.958251953,3
-0.068847656,-0.178710938,0.967773438,3
-0.068847656,-0.178710938,0.967773438,3
-0.068847656,-0.178710938,0.967773438,3
-0.081054688,-0.164306641,0.976318359,3
-0.081054688,-0.164306641,0.976318359,3
-0.081054688,-0.164306641,0.976318359,3
-0.55078125,-0.241943359,0.781738281,4
-0.55078125,-0.241943359,0.781738281,4
-0.55078125,-0.241943359,0.781738281,4
-0.956298828,-0.125732422,0.143554688,4
-0.956298828,-0.125732422,0.143554688,4
-0.956298828,-0.125732422,0.143554688,4
-0.956298828,-0.125732422,0.143554688,4
-0.865966797,-0.219726563,-0.144287109,4
-0.865966797,-0.219726563,-0.144287109,4
-0.865966797,-0.219726563,-0.144287109,4
-0.840332031,0.031738281,-0.509521484,1
-0.840332031,0.031738281,-0.509521484,1
-0.840332031,0.031738281,-0.509521484,1
-0.970214844,0.090820313,-0.205322266,1
0,0,0,0
-0.982910156,-0.009765625,-0.125976563,1
-0.982910156,-0.009765625,-0.125976563,1
-0.982910156,-0.009765625,-0.125976563,1
-0.982910156,-0.009765625,-0.125976563,1
-0.972167969,0.009033203,-0.149902344,1
-0.972167969,0.009033203,-0.149902344,1
-0.972167969,0.009033203,-0.149902344,1
-0.989746094,-0.039306641,-0.258300781,1
-0.989746094,-0.039306641,-0.258300781,1
-0.989746094,-0.039306641,-0.258300781,1
-0.776367188,0.000732422,-0.6796875,4
-0.776367188,0.000732422,-0.6796875,4
-0.776367188,0.000732422,-0.6796875,4
-0.776367188,0.000732422,-0.6796875,4
-0.628662109,-0.228271484,-0.750488281,4
-0.628662109,-0.228271484,-0.750488281,4
-0.628662109,-0.228271484,-0.750488281,4
-0.840576172,-0.432861328,-0.156005859,3
-0.840576172,-0.432861328,-0.156005859,3
-0.840576172,-0.432861328,-0.156005859,3
-0.990478516,-0.260009766,0.180908203,3
-0.990478516,-0.260009766,0.180908203,3
-0.990478516,-0.260009766,0.180908203,3
-0.755859375,-0.055175781,0.632324219,3
-0.755859375,-0.055175781,0.632324219,3
-0.755859375,-0.055175781,0.632324219,3
-0.755859375,-0.055175781,0.632324219,3
-0.109375,0.086425781,0.948242188,3
-0.109375,0.086425781,0.948242188,3
-0.109375,0.086425781,0.948242188,3
-0.2265625,0.108154297,0.966064453,3
-0.2265625,0.108154297,0.966064453,3
-0.2265625,0.108154297,0.966064453,3
-0.227294922,0.102539063,0.963378906,3
-0.227294922,0.102539063,0.963378906,3
-0.227294922,0.102539063,0.963378906,3
-0.227294922,0.102539063,0.963378906,3
-0.227539063,0.095947266,0.962890625,3
-0.227539063,0.095947266,0.962890625,3
-0.227539063,0.095947266,0.962890625,3
-0.189941406,0.094238281,0.986572266,3
-0.189941406,0.094238281,0.986572266,3
-0.189941406,0.094238281,0.986572266,3
-0.582763672,-0.133544922,0.797119141,4
-0.582763672,-0.133544922,0.797119141,4
-0.582763672,-0.133544922,0.797119141,4
-0.894287109,-0.073974609,0.373535156,4
-0.894287109,-0.073974609,0.373535156,4
-0.894287109,-0.073974609,0.373535156,4
-0.894287109,-0.073974609,0.373535156,4
-0.900146484,-0.104003906,0.357910156,4
-0.900146484,-0.104003906,0.357910156,4
-0.900146484,-0.104003906,0.357910156,4
-0.971679688,-0.208740234,0.138916016,4
-0.971679688,-0.208740234,0.138916016,4
-0.971679688,-0.208740234,0.138916016,4
-0.846435547,-0.24609375,-0.073242188,1
-0.846435547,-0.24609375,-0.073242188,1
-0.846435547,-0.24609375,-0.073242188,1
-0.846435547,-0.24609375,-0.073242188,1
-0.878662109,-0.141113281,-0.479980469,1
-0.878662109,-0.141113281,-0.479980469,1
-0.878662109,-0.141113281,-0.479980469,1
-0.880371094,-0.082519531,-0.411376953,1
-0.880371094,-0.082519531,-0.411376953,1
-0.880371094,-0.082519531,-0.411376953,1
-0.991455078,-0.098388672,-0.374023438,1
-0.991455078,-0.098388672,-0.374023438,1
-0.991455078,-0.098388672,-0.374023438,1
-0.991455078,-0.098388672,-0.374023438,1
-0.947021484,0.020996094,-0.283691406,1
-0.947021484,0.020996094,-0.283691406,1
-0.947021484,0.020996094,-0.283691406,1
-0.916992188,-0.064697266,-0.356689453,4
-0.916992188,-0.064697266,-0.356689453,4
-0.916992188,-0.064697266,-0.356689453,4
-0.871337891,-0.032470703,-0.447998047,4
-0.871337891,-0.032470703,-0.447998047,4
-0.871337891,-0.032470703,-0.447998047,4
-0.871337891,-0.032470703,-0.447998047,4
-0.725585938,-0.138183594,-0.662353516,4
-0.725585938,-0.138183594,-0.662353516,4
-0.725585938,-0.138183594,-0.662353516,4
-0.760498047,-0.134765625,-0.688232422,4
-0.760498047,-0.134765625,-0.688232422,4
-0.760498047,-0.134765625,-0.688232422,4
-0.909667969,-0.309326172,-0.045166016,4
-0.909667969,-0.309326172,-0.045166016,4
-0.909667969,-0.309326172,-0.045166016,4
-0.909667969,-0.309326172,-0.045166016,4
-0.908691406,-0.144042969,0.354003906,4
-0.908691406,-0.144042969,0.354003906,4
-0.908691406,-0.144042969,0.354003906,4
-0.573730469,0.088134766,0.846435547,3
-0.573730469,0.088134766,0.846435547,3
-0.573730469,0.088134766,0.846435547,3
-0.103515625,0.014404297,0.992919922,3
-0.103515625,0.014404297,0.992919922,3
-0.103515625,0.014404297,0.992919922,3
-0.103515625,0.014404297,0.992919922,3
-0.21484375,0.078857422,0.979492188,3
-0.21484375,0.078857422,0.979492188,3
-0.21484375,0.078857422,0.979492188,3
-0.208740234,0.077392578,0.979248047,3
-0.208740234,0.077392578,0.979248047,3
-0.208740234,0.077392578,0.979248047,3
-0.206054688,0.083007813,0.958496094,3
-0.206054688,0.083007813,0.958496094,3
-0.206054688,0.083007813,0.958496094,3
-0.318115234,-0.051025391,0.906494141,3
-0.318115234,-0.051025391,0.906494141,3
-0.318115234,-0.051025391,0.906494141,3
-0.833496094,0.018066406,0.580810547,4
-0.833496094,0.018066406,0.580810547,4
-0.833496094,0.018066406,0.580810547,4
-0.833496094,0.018066406,0.580810547,4
-0.951171875,-0.153320313,0.170166016,4
-0.951171875,-0.153320313,0.170166016,4
-0.951171875,-0.153320313,0.170166016,4
-0.936523438,-0.264648438,0.016357422,4
-0.936523438,-0.264648438,0.016357422,4
-0.936523438,-0.264648438,0.016357422,4
-0.984863281,-0.137695313,-0.683105469,4
-0.984863281,-0.137695313,-0.683105469,4
-0.984863281,-0.137695313,-0.683105469,4
-0.984863281,-0.137695313,-0.683105469,4
-0.823730469,-0.122558594,-0.481445313,1
-0.823730469,-0.122558594,-0.481445313,1
-0.823730469,-0.122558594,-0.481445313,1
-0.929199219,-0.074707031,-0.342773438,1
-0.929199219,-0.074707031,-0.342773438,1
-0.929199219,-0.074707031,-0.342773438,1
-0.936035156,-0.048095703,-0.301269531,1
-0.936035156,-0.048095703,-0.301269531,1
-0.936035156,-0.048095703,-0.301269531,1
-0.936035156,-0.048095703,-0.301269531,1
-0.941650391,-0.022949219,-0.30078125,1
-0.941650391,-0.022949219,-0.30078125,1
-0.941650391,-0.022949219,-0.30078125,1
-0.80078125,-0.145996094,-0.530273438,4
-0.80078125,-0.145996094,-0.530273438,4
-0.80078125,-0.145996094,-0.530273438,4
-0.684570313,-0.194091797,-0.692871094,4
-0.684570313,-0.194091797,-0.692871094,4
-0.684570313,-0.194091797,-0.692871094,4
-0.752929688,-0.343261719,-0.563232422,4
-0.752929688,-0.343261719,-0.563232422,4
-0.752929688,-0.343261719,-0.563232422,4
-0.752929688,-0.343261719,-0.563232422,4
-0.883544922,-0.516601563,0.084472656,4
-0.883544922,-0.516601563,0.084472656,4
-0.883544922,-0.516601563,0.084472656,4
-0.847167969,-0.180908203,0.528564453,4
-0.847167969,-0.180908203,0.528564453,4
-0.847167969,-0.180908203,0.528564453,4
-0.190673828,0.054443359,0.944824219,3
-0.190673828,0.054443359,0.944824219,3
-0.190673828,0.054443359,0.944824219,3
-0.190673828,0.054443359,0.944824219,3
-0.204345703,0.078857422,0.973388672,3
-0.204345703,0.078857422,0.973388672,3
-0.204345703,0.078857422,0.973388672,3
-0.214599609,0.075927734,0.962890625,3
-0.214599609,0.075927734,0.962890625,3
-0.214599609,0.075927734,0.962890625,3
-0.199707031,0.0703125,0.973876953,3
-0.199707031,0.0703125,0.973876953,3
-0.199707031,0.0703125,0.973876953,3
-0.199707031,0.0703125,0.973876953,3
-0.223144531,0.063720703,0.972167969,3
-0.223144531,0.063720703,0.972167969,3
-0.223144531,0.063720703,0.972167969,3
-0.318359375,0.000488281,0.958007813,3
-0.318359375,0.000488281,0.958007813,3
-0.318359375,0.000488281,0.958007813,3
-0.8125,-0.110839844,0.57421875,4
-0.8125,-0.110839844,0.57421875,4
-0.8125,-0.110839844,0.57421875,4
-0.8125,-0.110839844,0.57421875,4
-0.969726563,-0.081054688,0.259277344,4
-0.969726563,-0.081054688,0.259277344,4
-0.969726563,-0.081054688,0.259277344,4
-0.950439453,-0.355712891,0.093505859,4
-0.950439453,-0.355712891,0.093505859,4
-0.950439453,-0.355712891,0.093505859,4
-1.229248047,-0.279296875,-0.562988281,4
-1.229248047,-0.279296875,-0.562988281,4
-1.229248047,-0.279296875,-0.562988281,4
-0.844238281,-0.065917969,-0.424072266,1
-0.844238281,-0.065917969,-0.424072266,1
-0.844238281,-0.065917969,-0.424072266,1
-0.844238281,-0.065917969,-0.424072266,1
-0.956787109,-0.090332031,-0.289550781,1
-0.956787109,-0.090332031,-0.289550781,1
-0.956787109,-0.090332031,-0.289550781,1
-0.959472656,-0.063232422,-0.274658203,1
-0.959472656,-0.063232422,-0.274658203,1
-0.959472656,-0.063232422,-0.274658203,1
-0.931152344,-0.064208984,-0.326904297,1
-0.931152344,-0.064208984,-0.326904297,1
-0.931152344,-0.064208984,-0.326904297,1
-0.931152344,-0.064208984,-0.326904297,1
-0.623046875,-0.192382813,-0.577880859,4
-0.623046875,-0.192382813,-0.577880859,4
-0.623046875,-0.192382813,-0.577880859,4
-0.729248047,-0.239501953,-0.701660156,4
-0.729248047,-0.239501953,-0.701660156,4
-0.729248047,-0.239501953,-0.701660156,4
-0.948486328,-0.542236328,-0.014404297,4
-0.948486328,-0.542236328,-0.014404297,4
-0.948486328,-0.542236328,-0.014404297,4
-0.948486328,-0.542236328,-0.014404297,4
-0.694824219,0.030761719,0.701904297,3
-0.694824219,0.030761719,0.701904297,3
-0.694824219,0.030761719,0.701904297,3
-0.266357422,0.061035156,1.051513672,3
-0.266357422,0.061035156,1.051513672,3
-0.266357422,0.061035156,1.051513672,3
-0.163330078,0.082763672,0.984130859,3
-0.163330078,0.082763672,0.984130859,3
-0.163330078,0.082763672,0.984130859,3
-0.163330078,0.082763672,0.984130859,3
-0.165771484,0.094482422,0.969238281,3
-0.165771484,0.094482422,0.969238281,3
-0.165771484,0.094482422,0.969238281,3
-0.188232422,0.089599609,0.977539063,3
-0.188232422,0.089599609,0.977539063,3
-0.188232422,0.089599609,0.977539063,3
-0.174072266,0.076171875,0.975097656,3
-0.174072266,0.076171875,0.975097656,3
-0.174072266,0.076171875,0.975097656,3
-0.174072266,0.076171875,0.975097656,3
-0.583007813,-0.013671875,0.805175781,4
-0.583007813,-0.013671875,0.805175781,4
-0.583007813,-0.013671875,0.805175781,4
-0.942382813,-0.076171875,0.423828125,4
-0.942382813,-0.076171875,0.423828125,4
-0.942382813,-0.076171875,0.423828125,4
-0.943359375,-0.475585938,0.069091797,4
-0.943359375,-0.475585938,0.069091797,4
-0.943359375,-0.475585938,0.069091797,4
-0.973144531,-0.340820313,-0.543212891,4
-0.973144531,-0.340820313,-0.543212891,4
-0.973144531,-0.340820313,-0.543212891,4
-0.973144531,-0.340820313,-0.543212891,4
-0.780273438,-0.152832031,-0.438232422,1
-0.780273438,-0.152832031,-0.438232422,1
-0.780273438,-0.152832031,-0.438232422,1
-0.859130859,-0.168212891,-0.296875,1
-0.859130859,-0.168212891,-0.296875,1
-0.859130859,-0.168212891,-0.296875,1
-0.929931641,-0.167236328,-0.287109375,1
-0.929931641,-0.167236328,-0.287109375,1
-0.929931641,-0.167236328,-0.287109375,1
-0.929931641,-0.167236328,-0.287109375,1
-0.922607422,-0.007324219,-0.382080078,1
-0.922607422,-0.007324219,-0.382080078,1
-0.922607422,-0.007324219,-0.382080078,1
-0.70703125,-0.19140625,-0.590820313,4
-0.70703125,-0.19140625,-0.590820313,4
-0.70703125,-0.19140625,-0.590820313,4
-0.669677734,-0.283691406,-0.704833984,4
-0.669677734,-0.283691406,-0.704833984,4
-0.669677734,-0.283691406,-0.704833984,4
-0.960449219,-0.420898438,-0.057373047,4
-0.960449219,-0.420898438,-0.057373047,4
-0.960449219,-0.420898438,-0.057373047,4
-0.960449219,-0.420898438,-0.057373047,4
-0.840820313,-0.133544922,0.553955078,3
-0.840820313,-0.133544922,0.553955078,3
-0.840820313,-0.133544922,0.553955078,3
-0.170898438,0.099121094,1.024169922,3
-0.170898438,0.099121094,1.024169922,3
-0.170898438,0.099121094,1.024169922,3
-0.232177734,0.073486328,0.978271484,3
-0.232177734,0.073486328,0.978271484,3
-0.232177734,0.073486328,0.978271484,3
-0.232177734,0.073486328,0.978271484,3
-0.247558594,0.069580078,0.957763672,3
-0.247558594,0.069580078,0.957763672,3
-0.247558594,0.069580078,0.957763672,3
-0.246582031,0.079833984,0.961914063,3
-0.246582031,0.079833984,0.961914063,3
-0.246582031,0.079833984,0.961914063,3
-0.236572266,0.075683594,0.948974609,3
-0.236572266,0.075683594,0.948974609,3
-0.236572266,0.075683594,0.948974609,3
-0.236572266,0.075683594,0.948974609,3
-0.191650391,0.087158203,0.964111328,3
-0.191650391,0.087158203,0.964111328,3
-0.191650391,0.087158203,0.964111328,3
-0.660400391,0.009277344,0.716064453,4
-0.660400391,0.009277344,0.716064453,4
-0.660400391,0.009277344,0.716064453,4
-0.912597656,-0.060791016,0.356201172,4
-0.912597656,-0.060791016,0.356201172,4
-0.912597656,-0.060791016,0.356201172,4
-0.807128906,-0.094970703,0.510009766,4
-0.807128906,-0.094970703,0.510009766,4
-0.807128906,-0.094970703,0.510009766,4
-0.807128906,-0.094970703,0.510009766,4
-0.931152344,-0.353271484,0.098876953,4
-0.931152344,-0.353271484,0.098876953,4
-0.931152344,-0.353271484,0.098876953,4
-0.749511719,-0.322998047,-0.285888672,1
-0.749511719,-0.322998047,-0.285888672,1
-0.749511719,-0.322998047,-0.285888672,1
-0.755859375,-0.189453125,-0.522460938,1
-0.755859375,-0.189453125,-0.522460938,1
-0.755859375,-0.189453125,-0.522460938,1
-0.755859375,-0.189453125,-0.522460938,1
-0.901367188,-0.047851563,-0.282226563,1
-0.901367188,-0.047851563,-0.282226563,1
-0.901367188,-0.047851563,-0.282226563,1
-0.946777344,-0.068115234,-0.293457031,1
-0.946777344,-0.068115234,-0.293457031,1
-0.946777344,-0.068115234,-0.293457031,1
-0.963378906,-0.059814453,-0.281738281,1
-0.963378906,-0.059814453,-0.281738281,1
-0.963378906,-0.059814453,-0.281738281,1
-0.963378906,-0.059814453,-0.281738281,1
-0.824462891,-0.150146484,-0.511962891,4
-0.824462891,-0.150146484,-0.511962891,4
-0.824462891,-0.150146484,-0.511962891,4
-0.616455078,-0.147949219,-0.785644531,4
-0.616455078,-0.147949219,-0.785644531,4
-0.616455078,-0.147949219,-0.785644531,4
-0.689208984,-0.401611328,-0.530761719,4
-0.689208984,-0.401611328,-0.530761719,4
-0.689208984,-0.401611328,-0.530761719,4
-0.689208984,-0.401611328,-0.530761719,4
-0.946289063,-0.288085938,0.203125,4
-0.946289063,-0.288085938,0.203125,4
-0.946289063,-0.288085938,0.203125,4
-0.602783203,0.068847656,0.774414063,3
-0.602783203,0.068847656,0.774414063,3
-0.602783203,0.068847656,0.774414063,3
-0.220703125,0.069335938,0.961425781,3
-0.220703125,0.069335938,0.961425781,3
-0.220703125,0.069335938,0.961425781,3
-0.220703125,0.069335938,0.961425781,3
-0.244628906,0.094970703,0.961425781,3
-0.244628906,0.094970703,0.961425781,3
-0.244628906,0.094970703,0.961425781,3
-0.237060547,0.084960938,0.959960938,3
-0.237060547,0.084960938,0.959960938,3
-0.237060547,0.084960938,0.959960938,3
-0.237304688,0.090087891,0.947509766,3
-0.237304688,0.090087891,0.947509766,3
-0.237304688,0.090087891,0.947509766,3
-0.223388672,0.081787109,0.957763672,3
-0.223388672,0.081787109,0.957763672,3
-0.223388672,0.081787109,0.957763672,3
-0.223388672,0.081787109,0.957763672,3
-0.758544922,-0.0078125,0.717529297,4
-0.758544922,-0.0078125,0.717529297,4
-0.758544922,-0.0078125,0.717529297,4
-0.942382813,-0.215820313,0.180908203,4
-0.942382813,-0.215820313,0.180908203,4
-0.942382813,-0.215820313,0.180908203,4
-0.781005859,-0.329589844,-0.116699219,1
-0.781005859,-0.329589844,-0.116699219,1
-0.781005859,-0.329589844,-0.116699219,1
-0.781005859,-0.329589844,-0.116699219,1
-0.76953125,-0.197021484,-0.555908203,1
-0.76953125,-0.197021484,-0.555908203,1
-0.76953125,-0.197021484,-0.555908203,1
-0.957519531,-0.106933594,-0.310546875,1
-0.957519531,-0.106933594,-0.310546875,1
-0.957519531,-0.106933594,-0.310546875,1
-0.965087891,-0.056640625,-0.260253906,1
-0.965087891,-0.056640625,-0.260253906,1
-0.965087891,-0.056640625,-0.260253906,1
-0.965087891,-0.056640625,-0.260253906,1
-0.974609375,-0.005615234,-0.225585938,1
-0.974609375,-0.005615234,-0.225585938,1
-0.974609375,-0.005615234,-0.225585938,1
-0.963134766,-0.029296875,-0.244384766,1
-0.963134766,-0.029296875,-0.244384766,1
0,0,0,0
-0.996582031,0.078125,-0.075683594,5
-0.996582031,0.078125,-0.075683594,5
-0.996582031,0.078125,-0.075683594,5
-0.996582031,0.078125,-0.075683594,5
-1.063476563,0.088378906,-0.093017578,5
-1.063476563,0.088378906,-0.093017578,5
-1.063476563,0.088378906,-0.093017578,5
-0.802734375,-0.089111328,-0.077880859,5
-0.802734375,-0.089111328,-0.077880859,5
-0.802734375,-0.089111328,-0.077880859,5
-1.056640625,0.191162109,-0.441162109,5
-1.056640625,0.191162109,-0.441162109,5
-1.056640625,0.191162109,-0.441162109,5
-1.056640625,0.191162109,-0.441162109,2
-0.266601563,-0.005859375,-0.473144531,2
-0.266601563,-0.005859375,-0.473144531,2
-0.266601563,-0.005859375,-0.473144531,2
0.026611328,-0.166503906,-0.902832031,2
0.026611328,-0.166503906,-0.902832031,3
0.026611328,-0.166503906,-0.902832031,3
0.157226563,-0.268066406,-0.959472656,3
0.157226563,-0.268066406,-0.959472656,3
0.157226563,-0.268066406,-0.959472656,3
0.155761719,-0.267578125,-0.970214844,3
0.155761719,-0.267578125,-0.970214844,3
0.155761719,-0.267578125,-0.970214844,3
0.155761719,-0.267578125,-0.970214844,3
0.151367188,-0.28515625,-0.961181641,3
0.151367188,-0.28515625,-0.961181641,3
0.151367188,-0.28515625,-0.961181641,3
0.132080078,-0.294921875,-0.956298828,3
0.132080078,-0.294921875,-0.956298828,3
0,0,0,0
-0.959716797,0.028076172,-0.228027344,5
-0.959716797,0.028076172,-0.228027344,5
-0.959716797,0.028076172,-0.228027344,5
-0.959716797,0.028076172,-0.228027344,5
-0.938964844,0.050292969,-0.234130859,5
-0.938964844,0.050292969,-0.234130859,5
-0.938964844,0.050292969,-0.234130859,5
-0.972167969,-0.108154297,-0.266601563,5
-0.972167969,-0.108154297,-0.266601563,5
-0.972167969,-0.108154297,-0.266601563,5
-1.044921875,0.009765625,-0.458740234,5
-1.044921875,0.009765625,-0.458740234,5
-1.044921875,0.009765625,-0.458740234,5
-0.925048828,0.103759766,-0.385986328,5
-0.925048828,0.103759766,-0.385986328,5
-0.925048828,0.103759766,-0.385986328,5
-0.925048828,0.103759766,-0.385986328,5
-0.796875,0.133544922,-0.503417969,5
-0.796875,0.133544922,-0.503417969,5
-0.796875,0.133544922,-0.503417969,2
-0.603027344,-0.025634766,-0.241699219,2
-0.603027344,-0.025634766,-0.241699219,2
-0.603027344,-0.025634766,-0.241699219,2
-0.283935547,-0.376953125,-0.890625,2
-0.283935547,-0.376953125,-0.890625,2
-0.283935547,-0.376953125,-0.890625,2
-0.283935547,-0.376953125,-0.890625,2
0.154052734,-0.413818359,-0.902099609,2
0.154052734,-0.413818359,-0.902099609,3
0.154052734,-0.413818359,-0.902099609,3
0.172607422,-0.402832031,-0.904541016,3
0.172607422,-0.402832031,-0.904541016,3
0.172607422,-0.402832031,-0.904541016,3
0.176513672,-0.393310547,-0.901855469,3
0.176513672,-0.393310547,-0.901855469,3
0.176513672,-0.393310547,-0.901855469,3
0.186767578,-0.389404297,-0.920410156,3
0.186767578,-0.389404297,-0.920410156,3
0,0,0,0
-0.957763672,0.142089844,-0.246826172,5
-0.957763672,0.142089844,-0.246826172,5
-0.957763672,0.142089844,-0.246826172,5
-0.966064453,0.084960938,-0.233398438,5
-0.966064453,0.084960938,-0.233398438,5
-0.966064453,0.084960938,-0.233398438,5
-0.966064453,0.084960938,-0.233398438,5
-0.762939453,0.013427734,-0.485351563,5
-0.762939453,0.013427734,-0.485351563,5
-0.762939453,0.013427734,-0.485351563,5
-0.815185547,0.128662109,-0.364990234,5
-0.815185547,0.128662109,-0.364990234,5
-0.815185547,0.128662109,-0.364990234,5
-0.965087891,-0.162109375,-0.654296875,5
-0.965087891,-0.162109375,-0.654296875,5
-0.965087891,-0.162109375,-0.654296875,5
-0.965087891,-0.162109375,-0.654296875,5
-0.932373047,0.037353516,-0.399169922,5
-0.932373047,0.037353516,-0.399169922,5
-0.932373047,0.037353516,-0.399169922,2
-0.388671875,-0.054199219,-0.524414063,2
-0.388671875,-0.054199219,-0.524414063,2
-0.388671875,-0.054199219,-0.524414063,2
0.018066406,-0.337646484,-1.070556641,2
0.018066406,-0.337646484,-1.070556641,3
0.018066406,-0.337646484,-1.070556641,3
0.018066406,-0.337646484,-1.070556641,3
0.218505859,-0.312744141,-0.951171875,3
0.218505859,-0.312744141,-0.951171875,3
0.218505859,-0.312744141,-0.951171875,3
0.198730469,-0.305419922,-0.937744141,3
0.198730469,-0.305419922,-0.937744141,3
0.198730469,-0.305419922,-0.937744141,3
0.167724609,-0.289794922,-0.95703125,3
0.167724609,-0.289794922,-0.95703125,3
0.167724609,-0.289794922,-0.95703125,3
0.143310547,-0.276367188,-0.962890625,3
0.143310547,-0.276367188,-0.962890625,3
0,0,0,0
-0.955566406,0.145996094,-0.238525391,5
-0.955566406,0.145996094,-0.238525391,5
-0.955566406,0.145996094,-0.238525391,5
-0.955566406,0.145996094,-0.238525391,5
-0.986083984,0.141845703,-0.268554688,5
-0.986083984,0.141845703,-0.268554688,5
-0.986083984,0.141845703,-0.268554688,5
-0.818359375,0.196289063,-0.412109375,5
-0.818359375,0.196289063,-0.412109375,5
-0.818359375,0.196289063,-0.412109375,5
-1.098388672,-0.115478516,-0.472412109,5
-1.098388672,-0.115478516,-0.472412109,5
-1.098388672,-0.115478516,-0.472412109,5
-1.098388672,-0.115478516,-0.472412109,5
-0.938720703,-0.064208984,-0.322753906,5
-0.938720703,-0.064208984,-0.322753906,5
-0.938720703,-0.064208984,-0.322753906,5
-0.856933594,0.126220703,-0.298828125,5
-0.856933594,0.126220703,-0.298828125,5
-0.856933594,0.126220703,-0.298828125,5
-0.796386719,0.116455078,-0.470947266,5
-0.796386719,0.116455078,-0.470947266,5
-0.796386719,0.116455078,-0.470947266,5
-0.796386719,0.116455078,-0.470947266,2
1.215087891,-0.684814453,-0.938720703,2
1.215087891,-0.684814453,-0.938720703,2
1.215087891,-0.684814453,-0.938720703,2
0.26171875,-0.369384766,-0.906738281,2
0.26171875,-0.369384766,-0.906738281,3
0.26171875,-0.369384766,-0.906738281,3
0.289550781,-0.409179688,-0.874755859,3
0.289550781,-0.409179688,-0.874755859,3
0.289550781,-0.409179688,-0.874755859,3
0.289550781,-0.409179688,-0.874755859,3
0.298095703,-0.405761719,-0.866210938,3
0.298095703,-0.405761719,-0.866210938,3
0.298095703,-0.405761719,-0.866210938,3
0.282470703,-0.402587891,-0.864990234,3
0.282470703,-0.402587891,-0.864990234,3
0,0,0,0
-0.943115234,0.051025391,-0.316650391,5
-0.943115234,0.051025391,-0.316650391,5
-0.943115234,0.051025391,-0.316650391,5
-0.943115234,0.051025391,-0.316650391,5
-0.917480469,0.002197266,-0.347412109,5
-0.917480469,0.002197266,-0.347412109,5
-0.917480469,0.002197266,-0.347412109,5
-0.705810547,0.098388672,-0.564697266,5
-0.705810547,0.098388672,-0.564697266,5
-0.705810547,0.098388672,-0.564697266,5
-0.822021484,-0.093017578,-0.434814453,5
-0.822021484,-0.093017578,-0.434814453,5
-0.822021484,-0.093017578,-0.434814453,5
-0.822021484,-0.093017578,-0.434814453,5
-0.843994141,-0.088134766,-0.693847656,5
-0.843994141,-0.088134766,-0.693847656,5
-0.843994141,-0.088134766,-0.693847656,5
-0.893310547,-0.003417969,-0.426269531,5
-0.893310547,-0.003417969,-0.426269531,5
-0.893310547,-0.003417969,-0.426269531,5
-3.056640625,-1.208251953,-5.366699219,2
-3.056640625,-1.208251953,-5.366699219,2
-3.056640625,-1.208251953,-5.366699219,2
-3.056640625,-1.208251953,-5.366699219,2
0.375732422,-0.320556641,-0.967773438,2
0.375732422,-0.320556641,-0.967773438,3
0.375732422,-0.320556641,-0.967773438,3
0.374755859,-0.333740234,-0.855957031,3
0.374755859,-0.333740234,-0.855957031,3
0.374755859,-0.333740234,-0.855957031,3
0.394775391,-0.332275391,-0.867919922,3
0.394775391,-0.332275391,-0.867919922,3
0.394775391,-0.332275391,-0.867919922,3
0.387451172,-0.326660156,-0.865722656,3
0.387451172,-0.326660156,-0.865722656,3
0.387451172,-0.326660156,-0.865722656,3
0.387451172,-0.326660156,-0.865722656,3
0,0,0,0
-0.955322266,0.068603516,-0.272460938,5
-0.955322266,0.068603516,-0.272460938,5
-0.955322266,0.068603516,-0.272460938,5
-0.955322266,0.068603516,-0.272460938,5
-0.965332031,0.083496094,-0.260986328,5
-0.965332031,0.083496094,-0.260986328,5
-0.965332031,0.083496094,-0.260986328,2
-1.010742188,-0.318603516,-0.467285156,2
-1.010742188,-0.318603516,-0.467285156,2
-1.010742188,-0.318603516,-0.467285156,2
-0.856689453,-0.032226563,-0.563232422,2
-0.856689453,-0.032226563,-0.563232422,3
-0.856689453,-0.032226563,-0.563232422,3
-0.856689453,-0.032226563,-0.563232422,3
-0.715087891,-0.028564453,-0.440185547,3
-0.715087891,-0.028564453,-0.440185547,3
-0.715087891,-0.028564453,-0.440185547,3
-0.815673828,0.072753906,-0.481445313,3
-0.815673828,0.072753906,-0.481445313,3
-0.815673828,0.072753906,-0.481445313,3
-0.531982422,0.014404297,-0.370605469,3
-0.531982422,0.014404297,-0.370605469,3
-0.531982422,0.014404297,-0.370605469,3
-0.531982422,0.014404297,-0.370605469,3
-0.063476563,-0.505126953,-0.313232422,3
-0.063476563,-0.505126953,-0.313232422,3
-0.063476563,-0.505126953,-0.313232422,3
0.187011719,-0.511962891,-0.824951172,3
0.187011719,-0.511962891,-0.824951172,3
0.187011719,-0.511962891,-0.824951172,3
0.214599609,-0.520751953,-0.830322266,3
0.214599609,-0.520751953,-0.830322266,3
0.214599609,-0.520751953,-0.830322266,3
0.218994141,-0.514404297,-0.826904297,3
0.218994141,-0.514404297,-0.826904297,3
0.218994141,-0.514404297,-0.826904297,3
0.218994141,-0.514404297,-0.826904297,3
0.20703125,-0.516601563,-0.817871094,3
0.20703125,-0.516601563,-0.817871094,3
0.20703125,-0.516601563,-0.817871094,3
0.217529297,-0.516357422,-0.835205078,3
0,0,0,0
-0.949951172,0.072998047,-0.091552734,5
-0.949951172,0.072998047,-0.091552734,5
-0.949951172,0.072998047,-0.091552734,5
-1.008789063,0.074707031,-0.291259766,5
-1.008789063,0.074707031,-0.291259766,5
-1.008789063,0.074707031,-0.291259766,5
-1.008789063,0.074707031,-0.291259766,5
-0.854980469,0.259033203,-0.368408203,5
-0.854980469,0.259033203,-0.368408203,5
-0.854980469,0.259033203,-0.368408203,5
-0.83984375,-0.054443359,-0.147460938,5
-0.83984375,-0.054443359,-0.147460938,5
-0.83984375,-0.054443359,-0.147460938,5
-0.966552734,0.11328125,-0.114746094,5
-0.966552734,0.11328125,-0.114746094,5
-0.966552734,0.11328125,-0.114746094,5
-0.924072266,-0.137451172,-0.208740234,5
-0.924072266,-0.137451172,-0.208740234,5
-0.924072266,-0.137451172,-0.208740234,5
-0.924072266,-0.137451172,-0.208740234,5
-0.951171875,0.122558594,-0.367431641,5
-0.951171875,0.122558594,-0.367431641,5
-0.951171875,0.122558594,-0.367431641,5
-0.981933594,-0.013427734,-0.58203125,5
-0.981933594,-0.013427734,-0.58203125,5
-0.981933594,-0.013427734,-0.58203125,2
-2.335205078,-0.115234375,0.135498047,2
-2.335205078,-0.115234375,0.135498047,2
-2.335205078,-0.115234375,0.135498047,2
-2.335205078,-0.115234375,0.135498047,2
0.089111328,-0.564941406,-0.882568359,2
0.089111328,-0.564941406,-0.882568359,3
0.089111328,-0.564941406,-0.882568359,3
-0.065429688,-0.570068359,-0.827636719,3
-0.065429688,-0.570068359,-0.827636719,3
-0.065429688,-0.570068359,-0.827636719,3
-0.072998047,-0.543701172,-0.828613281,3
-0.072998047,-0.543701172,-0.828613281,3
-0.072998047,-0.543701172,-0.828613281,3
-0.078857422,-0.540771484,-0.841064453,3
-0.078857422,-0.540771484,-0.841064453,3
-0.078857422,-0.540771484,-0.841064453,3
-0.078857422,-0.540771484,-0.841064453,3
0,0,0,0
-0.978271484,0.159667969,-0.03515625,5
-0.978271484,0.159667969,-0.03515625,5
-0.978271484,0.159667969,-0.03515625,5
-0.938232422,0.108154297,-0.057861328,5
-0.938232422,0.108154297,-0.057861328,5
-0.938232422,0.108154297,-0.057861328,5
-0.997802734,0.158203125,-0.226318359,5
-0.997802734,0.158203125,-0.226318359,5
-0.997802734,0.158203125,-0.226318359,5
-0.899902344,0.390136719,-0.436523438,5
-0.899902344,0.390136719,-0.436523438,5
-0.899902344,0.390136719,-0.436523438,5
-0.899902344,0.390136719,-0.436523438,5
-1.043701172,0.056396484,-0.055175781,5
-1.043701172,0.056396484,-0.055175781,5
-1.043701172,0.056396484,-0.055175781,5
-1.152832031,0.138671875,-0.369873047,5
-1.152832031,0.138671875,-0.369873047,5
-1.152832031,0.138671875,-0.369873047,5
-0.820068359,0.028564453,-0.505126953,5
-0.820068359,0.028564453,-0.505126953,5
-0.820068359,0.028564453,-0.505126953,5
-0.820068359,0.028564453,-0.505126953,5
-0.826660156,0.017089844,-0.216064453,5
-0.826660156,0.017089844,-0.216064453,5
-0.826660156,0.017089844,-0.216064453,2
-0.229980469,0.080078125,-0.6875,2
-0.229980469,0.080078125,-0.6875,2
-0.229980469,0.080078125,-0.6875,2
-0.062744141,-0.332763672,-0.995605469,2
-0.062744141,-0.332763672,-0.995605469,3
-0.062744141,-0.332763672,-0.995605469,3
-0.089355469,-0.233398438,-0.977539063,3
-0.089355469,-0.233398438,-0.977539063,3
-0.089355469,-0.233398438,-0.977539063,3
-0.069335938,-0.221923828,-0.986572266,3
-0.069335938,-0.221923828,-0.986572266,3
-0.069335938,-0.221923828,-0.986572266,3
-0.069335938,-0.221923828,-0.986572266,3
-0.051025391,-0.214111328,-0.989501953,3
-0.051025391,-0.214111328,-0.989501953,3
0,0,0,0
-0.974121094,0.056152344,-0.171142578,5
-0.974121094,0.056152344,-0.171142578,5
-0.974121094,0.056152344,-0.171142578,5
-0.981689453,0.044433594,-0.154541016,5
-0.981689453,0.044433594,-0.154541016,5
-0.981689453,0.044433594,-0.154541016,5
-0.981689453,0.044433594,-0.154541016,5
-0.970947266,0.111083984,-0.150146484,5
-0.970947266,0.111083984,-0.150146484,5
-0.970947266,0.111083984,-0.150146484,5
-0.979980469,0.104736328,-0.139160156,5
-0.979980469,0.104736328,-0.139160156,5
-0.979980469,0.104736328,-0.139160156,5
-1.028076172,0.140380859,-0.217041016,5
-1.028076172,0.140380859,-0.217041016,5
-1.028076172,0.140380859,-0.217041016,5
-1.028076172,0.140380859,-0.217041016,5
-1.165039063,0.022705078,-0.251220703,5
-1.165039063,0.022705078,-0.251220703,5
-1.165039063,0.022705078,-0.251220703,5
-0.815185547,-0.187011719,-0.163818359,5
-0.815185547,-0.187011719,-0.163818359,5
-0.815185547,-0.187011719,-0.163818359,5
-1.051513672,0.209472656,-0.139160156,5
-1.051513672,0.209472656,-0.139160156,5
-1.051513672,0.209472656,-0.139160156,5
-0.957275391,-0.059326172,-0.684814453,5
-0.957275391,-0.059326172,-0.684814453,5
-0.7578125,-0.086669922,-0.072509766,5
-0.7578125,-0.086669922,-0.072509766,5
-0.7578125,-0.086669922,-0.072509766,5
-1.0234375,0.135009766,-0.095703125,5
-1.0234375,0.135009766,-0.095703125,5
-0.944824219,0.118896484,-0.223632813,5
-0.944824219,0.118896484,-0.223632813,5
-0.944824219,0.118896484,-0.223632813,5
-1.126953125,0.10546875,-0.305664063,5
-1.126953125,0.10546875,-0.305664063,5
-1.126953125,0.10546875,-0.305664063,5
-0.767578125,0.283447266,-0.197021484,5
-0.767578125,0.283447266,-0.197021484,5
-0.767578125,0.283447266,-0.197021484,5
-0.869384766,-0.049560547,-0.107421875,5
-0.869384766,-0.049560547,-0.107421875,5
-0.869384766,-0.049560547,-0.107421875,5
-1.121337891,0.072021484,-0.500732422,5
-1.121337891,0.072021484,-0.500732422,5
-1.121337891,0.072021484,-0.500732422,5
-0.772949219,0.076660156,-0.170410156,5
-0.772949219,0.076660156,-0.170410156,5
-0.772949219,0.076660156,-0.170410156,5
-1.231689453,-0.091552734,-0.139892578,5
-1.231689453,-0.091552734,-0.139892578,5
-1.231689453,-0.091552734,-0.139892578,5
-0.988769531,0.090820313,-0.211181641,5
-0.988769531,0.090820313,-0.211181641,5
-0.988769531,0.090820313,-0.211181641,5
-0.988769531,0.090820313,-0.211181641,5
-0.985595703,0.066894531,-0.071044922,5
-0.985595703,0.066894531,-0.071044922,5
-0.985595703,0.066894531,-0.071044922,5
-0.741699219,0.161132813,-0.305175781,5
-0.741699219,0.161132813,-0.305175781,5
-0.741699219,0.161132813,-0.305175781,5
-0.833496094,-0.085205078,-0.120849609,5
-0.833496094,-0.085205078,-0.120849609,5
-0.833496094,-0.085205078,-0.120849609,5
-1.062011719,0.122802734,-0.094726563,5
-1.062011719,0.122802734,-0.094726563,5
-1.062011719,0.122802734,-0.094726563,5
-0.706787109,0.020996094,-0.241943359,5
-0.706787109,0.020996094,-0.241943359,5
-0.706787109,0.020996094,-0.241943359,5
-0.923583984,-0.001220703,-0.505615234,5
